PacketCounter,SampleTimeFine,Euler_X,Euler_Y,Euler_Z,Acc_X,Acc_Y,Acc_Z,Gyr_X,Gyr_Y,Gyr_Z,
0, 3020742187, 15.091553688049316, -87.2990493774414, -138.01803588867188, 0, 0, 0, 0, 0, 0, 
1, 3020750520, 15.164915084838867, -87.29752349853516, -138.08767700195312, 9.832235336303711, -0.08133671432733536, 0.24411094188690186, 1.023327112197876, -2.1389427185058594, 0.08779279887676239, 
2, 3020758853, 15.159514427185059, -87.3016586303711, -138.08021545410156, 9.782858848571777, -0.12582243978977203, 0.2590160667896271, 0.9468943476676941, -2.3434207439422607, 0.26179030537605286, 
3, 3020767186, 15.181427955627441, -87.30238342285156, -138.0974578857422, 9.830207824707031, -0.09015262126922607, 0.2635248005390167, 1.1463266611099243, -2.3518223762512207, 0.45317989587783813, 
4, 3020775519, 15.136507034301758, -87.3070297241211, -138.0491943359375, 9.772014617919922, -0.09400050342082977, 0.28286290168762207, 1.1018602848052979, -2.367036819458008, 0.507840633392334, 
5, 3020783852, 15.154861450195312, -87.30870056152344, -138.06414794921875, 9.809186935424805, -0.11020566523075104, 0.2758440673351288, 0.9900543093681335, -2.4487721920013428, 0.49359914660453796, 
6, 3020792185, 15.116337776184082, -87.3146743774414, -138.02252197265625, 9.794917106628418, -0.11190871149301529, 0.23590634763240814, 1.0431780815124512, -2.4949800968170166, 0.501129686832428, 
7, 3020800518, 15.139323234558105, -87.31707763671875, -138.04281616210938, 9.798932075500488, -0.11944340169429779, 0.24173897504806519, 0.8992518186569214, -2.533862590789795, 0.4838657081127167, 
8, 3020808851, 15.118063926696777, -87.32270812988281, -138.0190887451172, 9.842429161071777, -0.10270553827285767, 0.23761960864067078, 0.9892090559005737, -2.5056867599487305, 0.4014391303062439, 
9, 3020817184, 15.164758682250977, -87.32548522949219, -138.0626220703125, 9.820881843566895, -0.10468636453151703, 0.27382156252861023, 0.9657720327377319, -2.6291990280151367, 0.3765420615673065, 
10, 3020825517, 15.153042793273926, -87.3314208984375, -138.04840087890625, 9.798774719238281, -0.12196693569421768, 0.24427616596221924, 0.9806281924247742, -2.5256149768829346, 0.3501594066619873, 
11, 3020833850, 15.201991081237793, -87.33244323730469, -138.0941619873047, 9.831897735595703, -0.11323656886816025, 0.2609367370605469, 0.9592403173446655, -2.398235321044922, 0.3014155328273773, 
12, 3020842183, 15.19166088104248, -87.33706665039062, -138.08042907714844, 9.81406021118164, -0.09615646302700043, 0.23577439785003662, 1.1121572256088257, -2.4113240242004395, 0.32077986001968384, 
13, 3020850516, 15.225544929504395, -87.33802795410156, -138.10968017578125, 9.817933082580566, -0.1058242991566658, 0.26257508993148804, 1.1224030256271362, -2.3877077102661133, 0.3928583860397339, 
14, 3020858849, 15.223834037780762, -87.34266662597656, -138.10488891601562, 9.802350997924805, -0.09879244863986969, 0.2262539267539978, 1.0771938562393188, -2.4226458072662354, 0.2728044390678406, 
15, 3020867182, 15.246968269348145, -87.3443603515625, -138.1238555908203, 9.85842227935791, -0.09736359119415283, 0.24775677919387817, 1.0838536024093628, -2.463679790496826, 0.4752337336540222, 
16, 3020875515, 15.181955337524414, -87.34945678710938, -138.0548095703125, 9.81589412689209, -0.10259836167097092, 0.229316845536232, 1.170685887336731, -2.354588747024536, 0.6207482218742371, 
17, 3020883848, 15.18909740447998, -87.35144805908203, -138.05661010742188, 9.823166847229004, -0.11144578456878662, 0.26314544677734375, 1.2151521444320679, -2.4641921520233154, 0.5737460851669312, 
18, 3020892181, 15.127458572387695, -87.357666015625, -137.99041748046875, 9.790267944335938, -0.09374384582042694, 0.24354246258735657, 1.2369754314422607, -2.5154457092285156, 0.6484115123748779, 
19, 3020900514, 15.105149269104004, -87.35906982421875, -137.96328735351562, 9.860071182250977, -0.09431283175945282, 0.23500517010688782, 1.1515007019042969, -2.341935396194458, 0.7047372460365295, 
20, 3020908847, 15.020668983459473, -87.3640365600586, -137.8732147216797, 9.83505630493164, -0.09431453794240952, 0.2409178912639618, 1.3457591533660889, -2.3383493423461914, 0.7351413369178772, 
21, 3020917180, 15.006277084350586, -87.36656188964844, -137.8525390625, 9.798885345458984, -0.10373629629611969, 0.24212796986103058, 1.329980731010437, -2.482173204421997, 0.7061204314231873, 
22, 3020925513, 14.92067813873291, -87.37236785888672, -137.7617950439453, 9.83778190612793, -0.11332689970731735, 0.24877211451530457, 1.316149115562439, -2.459120512008667, 0.7703096866607666, 
23, 3020933846, 14.891855239868164, -87.37460327148438, -137.72645568847656, 9.815162658691406, -0.0956977978348732, 0.24743862450122833, 1.348755955696106, -2.4384496212005615, 0.7773535847663879, 
24, 3020942179, 14.806038856506348, -87.37937927246094, -137.6363067626953, 9.822731971740723, -0.10910899192094803, 0.23350484669208527, 1.1999884843826294, -2.2898359298706055, 0.71844083070755, 
25, 3020950512, 14.758994102478027, -87.38005065917969, -137.58389282226562, 9.828964233398438, -0.11855365335941315, 0.2650918960571289, 1.2078008651733398, -2.2251853942871094, 0.8153394460678101, 
26, 3020958845, 14.660256385803223, -87.38416290283203, -137.4795684814453, 9.828384399414062, -0.12086966633796692, 0.25815725326538086, 1.372525930404663, -2.2418344020843506, 0.7858062386512756, 
27, 3020967178, 14.631917953491211, -87.3834228515625, -137.4453582763672, 9.809650421142578, -0.10450263321399689, 0.24806718528270721, 1.2769336700439453, -2.1058743000030518, 0.6814539432525635, 
28, 3020975511, 14.543519973754883, -87.38678741455078, -137.35256958007812, 9.823835372924805, -0.12115135043859482, 0.24512295424938202, 1.199501872062683, -2.12774920463562, 0.6878575086593628, 
29, 3020983844, 14.52547836303711, -87.38671112060547, -137.3289031982422, 9.809301376342773, -0.10546397417783737, 0.24358457326889038, 1.232723355293274, -2.1691157817840576, 0.6362447738647461, 
30, 3020992177, 14.448488235473633, -87.38978576660156, -137.2474822998047, 9.84347152709961, -0.10425517708063126, 0.249651700258255, 1.2366679906845093, -2.1613802909851074, 0.6323257684707642, 
31, 3021000510, 14.425437927246094, -87.38858032226562, -137.21902465820312, 9.831253051757812, -0.12775163352489471, 0.2403275966644287, 1.2103878259658813, -2.0425305366516113, 0.6325820088386536, 
32, 3021008843, 14.347848892211914, -87.3901596069336, -137.13697814941406, 9.800561904907227, -0.12056334316730499, 0.2409956008195877, 1.2363351583480835, -1.9711178541183472, 0.5873216390609741, 
33, 3021017176, 14.344846725463867, -87.38910675048828, -137.12893676757812, 9.790185928344727, -0.11866866797208786, 0.2531079649925232, 1.1707627773284912, -2.092529535293579, 0.5292285680770874, 
34, 3021025509, 14.286604881286621, -87.39151000976562, -137.0672607421875, 9.854278564453125, -0.10896209627389908, 0.2678757607936859, 1.1133612394332886, -2.0978827476501465, 0.5042546987533569, 
35, 3021033842, 14.284322738647461, -87.39053344726562, -137.06056213378906, 9.760599136352539, -0.10067865252494812, 0.24250419437885284, 1.1011176109313965, -2.1030313968658447, 0.5272562503814697, 
36, 3021042175, 14.227639198303223, -87.3935317993164, -136.9997100830078, 9.817822456359863, -0.11530397832393646, 0.2429022490978241, 1.182801365852356, -2.1717545986175537, 0.5174460411071777, 
37, 3021050508, 14.250621795654297, -87.39338684082031, -137.0189971923828, 9.826421737670898, -0.10998760163784027, 0.24330444633960724, 1.040770411491394, -2.2750051021575928, 0.42333927750587463, 
38, 3021058841, 14.239699363708496, -87.398193359375, -137.0050048828125, 9.816648483276367, -0.11068913340568542, 0.2698456048965454, 1.0270413160324097, -2.3833789825439453, 0.3055906593799591, 
39, 3021067174, 14.288389205932617, -87.39864349365234, -137.0498046875, 9.79642391204834, -0.11177278310060501, 0.282490074634552, 1.0523736476898193, -2.344778299331665, 0.2975221574306488, 
40, 3021075507, 14.250060081481934, -87.40226745605469, -137.0086669921875, 9.817301750183105, -0.12139556556940079, 0.2557772099971771, 1.0358269214630127, -2.2829971313476562, 0.43678680062294006, 
41, 3021083840, 14.285269737243652, -87.40293884277344, -137.04025268554688, 9.789660453796387, -0.1192236989736557, 0.2731523811817169, 1.0081889629364014, -2.338195323944092, 0.3699335753917694, 
42, 3021092173, 14.260826110839844, -87.40693664550781, -137.01199340820312, 9.839197158813477, -0.10613597184419632, 0.2356875240802765, 1.1427149772644043, -2.296802520751953, 0.3650924563407898, 
43, 3021100506, 14.300444602966309, -87.4076156616211, -137.0475311279297, 9.788549423217773, -0.09681283682584763, 0.2530602514743805, 1.0710721015930176, -2.3693935871124268, 0.35781803727149963, 
44, 3021108839, 14.278759956359863, -87.41117095947266, -137.02330017089844, 9.824405670166016, -0.10598459094762802, 0.23472978174686432, 0.9987630844116211, -2.2430899143218994, 0.3305900990962982, 
45, 3021117172, 14.293244361877441, -87.4100341796875, -137.03363037109375, 9.824053764343262, -0.09760181605815887, 0.2785191833972931, 1.0608775615692139, -2.0984973907470703, 0.42764243483543396, 
46, 3021125505, 14.249690055847168, -87.41275787353516, -136.9861602783203, 9.821328163146973, -0.10095712542533875, 0.2394515872001648, 1.1663826704025269, -2.174238681793213, 0.4446759521961212, 
47, 3021133838, 14.2550630569458, -87.41199493408203, -136.98724365234375, 9.822765350341797, -0.11700960248708725, 0.2324123978614807, 1.0933308601379395, -2.145064115524292, 0.4923696219921112, 
48, 3021142171, 14.184578895568848, -87.41510772705078, -136.9136199951172, 9.80659008026123, -0.09327245503664017, 0.22162434458732605, 1.0699962377548218, -2.1847403049468994, 0.5922139883041382, 
49, 3021150504, 14.157079696655273, -87.41442108154297, -136.8817138671875, 9.830445289611816, -0.1111752837896347, 0.23734943568706512, 1.080779790878296, -2.097728967666626, 0.6636008024215698, 
50, 3021158837, 14.088529586791992, -87.41767883300781, -136.80984497070312, 9.78813648223877, -0.12012358009815216, 0.24817855656147003, 1.0859283208847046, -2.166656970977783, 0.5784334540367126, 
51, 3021167170, 14.092491149902344, -87.41851043701172, -136.80938720703125, 9.807597160339355, -0.09917958825826645, 0.26250460743904114, 1.1075724363327026, -2.34275484085083, 0.5512311458587646, 
52, 3021175503, 14.035284996032715, -87.422607421875, -136.74920654296875, 9.805569648742676, -0.11786678433418274, 0.2295534610748291, 1.026221513748169, -2.2689859867095947, 0.5365030169487, 
53, 3021183836, 14.031156539916992, -87.42276000976562, -136.7413787841797, 9.818689346313477, -0.10754792392253876, 0.23693358898162842, 1.0225586891174316, -2.2369680404663086, 0.5652165412902832, 
54, 3021192169, 13.978289604187012, -87.4258041381836, -136.68536376953125, 9.80576229095459, -0.12290889024734497, 0.22520114481449127, 1.0903339385986328, -2.1977784633636475, 0.4965447783470154, 
55, 3021200502, 13.993318557739258, -87.42565155029297, -136.6951904296875, 9.821495056152344, -0.1082092672586441, 0.26147037744522095, 1.1846455335617065, -2.209176540374756, 0.46035176515579224, 
56, 3021208835, 13.932912826538086, -87.42793273925781, -136.63035583496094, 9.809340476989746, -0.10916481912136078, 0.24839112162590027, 1.2211202383041382, -2.082719087600708, 0.5161140561103821, 
57, 3021217168, 13.95230770111084, -87.42800903320312, -136.6448516845703, 9.800082206726074, -0.0985148549079895, 0.2819327414035797, 1.1680731773376465, -2.2537965774536133, 0.44557246565818787, 
58, 3021225501, 13.908177375793457, -87.43212127685547, -136.5962371826172, 9.838235855102539, -0.09509217739105225, 0.23983991146087646, 1.207058072090149, -2.3123762607574463, 0.4828411936759949, 
59, 3021233834, 13.905797004699707, -87.4317398071289, -136.58921813964844, 9.792380332946777, -0.09388329833745956, 0.2284943014383316, 1.1273976564407349, -2.162097454071045, 0.5419843792915344, 
60, 3021242167, 13.843337059020996, -87.43616485595703, -136.52264404296875, 9.874764442443848, -0.08634261786937714, 0.2383199781179428, 1.173529028892517, -2.3454442024230957, 0.5916247963905334, 
61, 3021250500, 13.82933235168457, -87.43730926513672, -136.502685546875, 9.766223907470703, -0.10042522102594376, 0.22611543536186218, 1.280955195426941, -2.302668571472168, 0.6466954946517944, 
62, 3021258833, 13.767988204956055, -87.44082641601562, -136.4380645751953, 9.82048225402832, -0.08113068342208862, 0.2770032584667206, 1.065001368522644, -2.2528231143951416, 0.5564820170402527, 
63, 3021267166, 13.757407188415527, -87.44258117675781, -136.42213439941406, 9.813899993896484, -0.09954796731472015, 0.24510197341442108, 1.2214020490646362, -2.4075589179992676, 0.6512547731399536, 
64, 3021275499, 13.710646629333496, -87.44702911376953, -136.37155151367188, 9.810729026794434, -0.1075601726770401, 0.26212260127067566, 1.1390522718429565, -2.3643476963043213, 0.505740225315094, 
65, 3021283832, 13.709525108337402, -87.44841003417969, -136.36659240722656, 9.797584533691406, -0.12073402851819992, 0.2294297218322754, 1.0397459268569946, -2.395289659500122, 0.588013231754303, 
66, 3021292165, 13.653584480285645, -87.45286560058594, -136.30770874023438, 9.809100151062012, -0.10235165059566498, 0.22272706031799316, 1.01105797290802, -2.322545051574707, 0.5387825965881348, 
67, 3021300498, 13.680741310119629, -87.45362854003906, -136.33047485351562, 9.81065559387207, -0.12087150663137436, 0.24090181291103363, 1.101706624031067, -2.3506438732147217, 0.42536279559135437, 
68, 3021308831, 13.66633129119873, -87.4578628540039, -136.31292724609375, 9.79401683807373, -0.1082381084561348, 0.264344185590744, 1.0636439323425293, -2.3630926609039307, 0.32257285714149475, 
69, 3021317164, 13.691370010375977, -87.45809173583984, -136.33438110351562, 9.820170402526855, -0.11819564551115036, 0.24344846606254578, 1.0134913921356201, -2.2904508113861084, 0.4180884063243866, 
70, 3021325497, 13.66958999633789, -87.46163940429688, -136.3089141845703, 9.809934616088867, -0.12495306879281998, 0.24951733648777008, 1.1389756202697754, -2.282407760620117, 0.34741872549057007, 
71, 3021333830, 13.716957092285156, -87.46240234375, -136.3520965576172, 9.836928367614746, -0.11153341084718704, 0.23310334980487823, 1.0907950401306152, -2.374798059463501, 0.31952476501464844, 
72, 3021342163, 13.676860809326172, -87.46642303466797, -136.30844116210938, 9.828376770019531, -0.08848272264003754, 0.2594543397426605, 1.1092116832733154, -2.330921173095703, 0.45968589186668396, 
73, 3021350496, 13.696855545043945, -87.46642303466797, -136.32382202148438, 9.846969604492188, -0.10086186975240707, 0.2398662567138672, 1.1232483386993408, -2.2156569957733154, 0.43174076080322266, 
74, 3021358829, 13.642672538757324, -87.46865844726562, -136.26571655273438, 9.83556842803955, -0.07872619479894638, 0.23566611111164093, 1.1779346466064453, -2.1304385662078857, 0.4909352660179138, 
75, 3021367162, 13.650306701660156, -87.46912384033203, -136.26791381835938, 9.820501327514648, -0.1093486025929451, 0.2780603766441345, 1.2109001874923706, -2.279897451400757, 0.5198280811309814, 
76, 3021375495, 13.58821964263916, -87.47268676757812, -136.201416015625, 9.835184097290039, -0.12190696597099304, 0.2488107830286026, 1.207186222076416, -2.229872941970825, 0.5595813989639282, 
77, 3021383828, 13.583151817321777, -87.47199249267578, -136.19090270996094, 9.805941581726074, -0.09167494624853134, 0.2890758514404297, 1.2299827337265015, -2.1388397216796875, 0.5550476312637329, 
78, 3021392161, 13.515719413757324, -87.4757080078125, -136.11895751953125, 9.806147575378418, -0.10815338790416718, 0.23426185548305511, 1.211361289024353, -2.217501163482666, 0.5844272375106812, 
79, 3021400494, 13.486837387084961, -87.47625732421875, -136.0848846435547, 9.831445693969727, -0.08672228455543518, 0.2408166080713272, 1.203728199005127, -2.274416208267212, 0.7160075902938843, 
80, 3021408827, 13.413229942321777, -87.48075866699219, -136.0071563720703, 9.792168617248535, -0.09500633925199509, 0.28707003593444824, 1.1763209104537964, -2.323979377746582, 0.6413933038711548, 
81, 3021417160, 13.40682601928711, -87.4821548461914, -135.99600219726562, 9.79700756072998, -0.11432350426912308, 0.25657108426094055, 1.1426382064819336, -2.3703672885894775, 0.6146008372306824, 
82, 3021425493, 13.339946746826172, -87.48565673828125, -135.9250030517578, 9.821002960205078, -0.10675518214702606, 0.2290651798248291, 1.1643333435058594, -2.220369577407837, 0.5784847140312195, 
83, 3021433826, 13.33752727508545, -87.48580932617188, -135.91847229003906, 9.825175285339355, -0.11454728990793228, 0.2397283911705017, 1.0690230131149292, -2.238248825073242, 0.5568406581878662, 
84, 3021442159, 13.309795379638672, -87.48876953125, -135.8884735107422, 9.792160987854004, -0.09173037111759186, 0.23758485913276672, 0.977938711643219, -2.2462403774261475, 0.36570727825164795, 
85, 3021450492, 13.352985382080078, -87.48908233642578, -135.92694091796875, 9.81328296661377, -0.10149990022182465, 0.2370654046535492, 1.1333147287368774, -2.2884528636932373, 0.32449397444725037, 
86, 3021458825, 13.339570999145508, -87.49172973632812, -135.9102783203125, 9.830721855163574, -0.12218295782804489, 0.23721125721931458, 1.0774500370025635, -2.1959338188171387, 0.28143641352653503, 
87, 3021467158, 13.380513191223145, -87.49150085449219, -135.94729614257812, 9.838682174682617, -0.10510317981243134, 0.2328552007675171, 1.0620046854019165, -2.2610199451446533, 0.3280799686908722, 
88, 3021475491, 13.358698844909668, -87.4958724975586, -135.92242431640625, 9.767887115478516, -0.09503743052482605, 0.2689017057418823, 1.0422048568725586, -2.3671908378601074, 0.36601459980010986, 
89, 3021483824, 13.379369735717773, -87.49720001220703, -135.9384765625, 9.81312370300293, -0.11992783099412918, 0.25097814202308655, 1.1205588579177856, -2.404484987258911, 0.47367122769355774, 
90, 3021492157, 13.338818550109863, -87.50119018554688, -135.89439392089844, 9.824913024902344, -0.1122821643948555, 0.2547540068626404, 1.1129515171051025, -2.3171918392181396, 0.4596090316772461, 
91, 3021500490, 13.364476203918457, -87.50260925292969, -135.91578674316406, 9.87723159790039, -0.10450974851846695, 0.22439013421535492, 1.103730320930481, -2.4402425289154053, 0.4545886814594269, 
92, 3021508823, 13.312271118164062, -87.50699615478516, -135.85989379882812, 9.783846855163574, -0.096655935049057, 0.23983952403068542, 1.112669587135315, -2.348261833190918, 0.5278197526931763, 
93, 3021517156, 13.321843147277832, -87.50841522216797, -135.8652801513672, 9.78158950805664, -0.10338050127029419, 0.26538804173469543, 1.078423261642456, -2.4044339656829834, 0.5326607823371887, 
94, 3021525489, 13.26908016204834, -87.51296997070312, -135.80885314941406, 9.823993682861328, -0.09857403486967087, 0.22716248035430908, 1.1185352802276611, -2.368420124053955, 0.5349917411804199, 
95, 3021533822, 13.27981185913086, -87.51446533203125, -135.8155059814453, 9.867398262023926, -0.11565172672271729, 0.19528061151504517, 1.069483995437622, -2.4024360179901123, 0.5253608226776123, 
96, 3021542155, 13.230842590332031, -87.51801300048828, -135.76473999023438, 9.784421920776367, -0.11086361855268478, 0.24584519863128662, 0.9090365171432495, -2.288503885269165, 0.48627346754074097, 
97, 3021550488, 13.243739128112793, -87.5195083618164, -135.77426147460938, 9.75289249420166, -0.09892021864652634, 0.2657800018787384, 0.9796805381774902, -2.410965919494629, 0.5112729668617249, 
98, 3021558821, 13.223148345947266, -87.52409362792969, -135.74990844726562, 9.879030227661133, -0.08904647082090378, 0.2435464859008789, 1.1304715871810913, -2.4079174995422363, 0.37334027886390686, 
99, 3021567154, 13.269586563110352, -87.52409362792969, -135.7917022705078, 9.87288761138916, -0.12377317249774933, 0.244989812374115, 1.1415624618530273, -2.2793853282928467, 0.3087155818939209, 
100, 3021575487, 13.258997917175293, -87.52606964111328, -135.7781982421875, 9.79265308380127, -0.12627753615379333, 0.266246497631073, 1.0288853645324707, -2.1356124877929688, 0.25256916880607605, 
101, 3021583820, 13.300509452819824, -87.52654266357422, -135.81585693359375, 9.760350227355957, -0.08363062888383865, 0.22965779900550842, 1.0447406768798828, -2.3250553607940674, 0.34329476952552795, 
102, 3021592153, 13.26192569732666, -87.52947998046875, -135.7744903564453, 9.885534286499023, -0.11192987114191055, 0.24422430992126465, 1.0324714183807373, -2.2253646850585938, 0.42272451519966125, 
103, 3021600486, 13.299850463867188, -87.52883911132812, -135.80801391601562, 9.826186180114746, -0.08958280831575394, 0.23106975853443146, 1.0991196632385254, -2.1786701679229736, 0.3282592296600342, 
104, 3021608819, 13.248871803283691, -87.53089904785156, -135.7532196044922, 9.78277587890625, -0.10732105374336243, 0.2997823655605316, 1.1208661794662476, -2.097933769226074, 0.4636048674583435, 
105, 3021617152, 13.249101638793945, -87.53256225585938, -135.74957275390625, 9.7880277633667, -0.09377238899469376, 0.22502967715263367, 1.058546781539917, -2.4355037212371826, 0.5891145467758179, 
106, 3021625485, 13.19357967376709, -87.53724670410156, -135.69046020507812, 9.897393226623535, -0.10219371318817139, 0.1625465452671051, 1.0991452932357788, -2.3784356117248535, 0.5508214235305786, 
107, 3021633818, 13.187630653381348, -87.53669738769531, -135.68014526367188, 9.780735969543457, -0.09798664599657059, 0.29360342025756836, 1.0960204601287842, -2.1411707401275635, 0.5546122789382935, 
108, 3021642151, 13.131940841674805, -87.54122161865234, -135.62132263183594, 9.797167778015137, -0.08724813163280487, 0.21034269034862518, 1.0571635961532593, -2.392651319503784, 0.5535876750946045, 
109, 3021650484, 13.139126777648926, -87.54345703125, -135.6243896484375, 9.820920944213867, -0.10621137917041779, 0.20223796367645264, 1.0747605562210083, -2.4805850982666016, 0.5623220801353455, 
110, 3021658817, 13.086471557617188, -87.54832458496094, -135.56800842285156, 9.87381362915039, -0.1106967106461525, 0.18485236167907715, 1.1267062425613403, -2.432865619659424, 0.5494126081466675, 
111, 3021667150, 13.116991996765137, -87.54936218261719, -135.59486389160156, 9.769959449768066, -0.0906158834695816, 0.2561200261116028, 1.0213547945022583, -2.3910374641418457, 0.4171406328678131, 
112, 3021675483, 13.073026657104492, -87.55399322509766, -135.5476531982422, 9.86525821685791, -0.10596024245023727, 0.2763141691684723, 1.0697914361953735, -2.3971338272094727, 0.49306121468544006, 
113, 3021683816, 13.10360336303711, -87.55303955078125, -135.57334899902344, 9.780258178710938, -0.07778347283601761, 0.28739607334136963, 1.1642310619354248, -2.141068458557129, 0.36455461382865906, 
114, 3021692149, 13.066681861877441, -87.55863952636719, -135.53280639648438, 9.792590141296387, -0.11268016695976257, 0.20559217035770416, 1.1052415370941162, -2.518033266067505, 0.4850439727306366, 
115, 3021700482, 13.097808837890625, -87.55863952636719, -135.55931091308594, 9.89591121673584, -0.0694275051355362, 0.23278968036174774, 1.1331353187561035, -2.264580249786377, 0.3887600600719452, 
116, 3021708815, 13.024520874023438, -87.56233978271484, -135.4818878173828, 9.724283218383789, -0.09685806930065155, 0.289840966463089, 1.147556185722351, -2.2411177158355713, 0.6153948307037354, 
117, 3021717148, 13.023772239685059, -87.5633773803711, -135.4761962890625, 9.883005142211914, -0.06594009697437286, 0.287352591753006, 1.1688416004180908, -2.346212863922119, 0.5771271586418152, 
118, 3021725481, 12.974822998046875, -87.56780242919922, -135.42344665527344, 9.7725830078125, -0.13133667409420013, 0.2133493274450302, 1.1197904348373413, -2.369957208633423, 0.5146028399467468, 
119, 3021733814, 12.981176376342773, -87.56812286376953, -135.4253387451172, 9.904272079467773, -0.09616453945636749, 0.1899132877588272, 1.1256303787231445, -2.2765419483184814, 0.5219540596008301, 
120, 3021742147, 12.94282341003418, -87.5723876953125, -135.38438415527344, 9.731842994689941, -0.1027948185801506, 0.26310452818870544, 0.9817553162574768, -2.354588747024536, 0.44995248317718506, 
121, 3021750480, 12.962081909179688, -87.57270812988281, -135.3997344970703, 9.86856746673584, -0.06454939395189285, 0.2913936376571655, 1.0523992776870728, -2.307919502258301, 0.4575599133968353, 
122, 3021758813, 12.942523956298828, -87.57820129394531, -135.377197265625, 9.739179611206055, -0.1069990023970604, 0.2429419904947281, 1.0399765968322754, -2.537090301513672, 0.3970590829849243, 
123, 3021767146, 12.947579383850098, -87.57909393310547, -135.3777313232422, 9.887840270996094, -0.10266640037298203, 0.178526371717453, 1.1178948879241943, -2.3342506885528564, 0.541753888130188, 
124, 3021775479, 12.903051376342773, -87.58313751220703, -135.32989501953125, 9.748363494873047, -0.08407043665647507, 0.24609987437725067, 1.0606215000152588, -2.328538656234741, 0.48102253675460815, 
125, 3021783812, 12.900076866149902, -87.5845947265625, -135.32240295410156, 9.831769943237305, -0.1040986180305481, 0.2524638772010803, 1.120046615600586, -2.4017443656921387, 0.5981820225715637, 
126, 3021792145, 12.844014167785645, -87.58783721923828, -135.26280212402344, 9.849998474121094, -0.09479907900094986, 0.2522631883621216, 1.0844427347183228, -2.207357883453369, 0.512451171875, 
127, 3021800478, 12.843116760253906, -87.58824157714844, -135.25730895996094, 9.728795051574707, -0.08392813056707382, 0.26882490515708923, 1.1226592063903809, -2.2765676975250244, 0.5586080551147461, 
128, 3021808811, 12.780336380004883, -87.5925521850586, -135.1912078857422, 9.867697715759277, -0.11350484192371368, 0.23671096563339233, 1.0749653577804565, -2.3630926609039307, 0.5829159617424011, 
129, 3021817144, 12.781426429748535, -87.59271240234375, -135.18807983398438, 9.782458305358887, -0.07766526192426682, 0.23067036271095276, 1.0911024808883667, -2.2628896236419678, 0.5438798666000366, 
130, 3021825477, 12.719826698303223, -87.5974349975586, -135.12281799316406, 9.810410499572754, -0.12751035392284393, 0.29598382115364075, 1.100707769393921, -2.385274648666382, 0.580866813659668, 
131, 3021833810, 12.748464584350586, -87.5987319946289, -135.14743041992188, 9.799384117126465, -0.09084584563970566, 0.191917285323143, 1.0600067377090454, -2.3949825763702393, 0.43058812618255615, 
132, 3021842143, 12.703909873962402, -87.60175323486328, -135.09959411621094, 9.847612380981445, -0.11516251415014267, 0.22799216210842133, 1.0760924816131592, -2.259918451309204, 0.46416839957237244, 
133, 3021850476, 12.720714569091797, -87.60404205322266, -135.1121826171875, 9.781423568725586, -0.09951746463775635, 0.19794276356697083, 1.0788074731826782, -2.498924732208252, 0.5151406526565552, 
134, 3021858809, 12.671509742736816, -87.60829162597656, -135.05979919433594, 9.802412033081055, -0.10978985577821732, 0.22059518098831177, 1.0721479654312134, -2.3626315593719482, 0.511221706867218, 
135, 3021867142, 12.679224967956543, -87.60902404785156, -135.06358337402344, 9.857114791870117, -0.06469368934631348, 0.24191798269748688, 1.039797067642212, -2.3239026069641113, 0.5214418172836304, 
136, 3021875475, 12.619511604309082, -87.61361694335938, -134.9997100830078, 9.795668601989746, -0.10351960361003876, 0.2967609167098999, 1.1513214111328125, -2.34216570854187, 0.5624758005142212, 
137, 3021883808, 12.628641128540039, -87.6141128540039, -135.0049591064453, 9.76204776763916, -0.10647595673799515, 0.20763437449932098, 1.050042748451233, -2.3118643760681152, 0.5120413899421692, 
138, 3021892141, 12.56985092163086, -87.61821746826172, -134.94300842285156, 9.883124351501465, -0.09962143003940582, 0.2121509313583374, 1.052348017692566, -2.342805862426758, 0.5531778335571289, 
139, 3021900474, 12.565129280090332, -87.61878967285156, -134.93374633789062, 9.797224044799805, -0.1139405369758606, 0.21158921718597412, 1.1263476610183716, -2.304410457611084, 0.5840685963630676, 
140, 3021908807, 12.510741233825684, -87.62232208251953, -134.8754119873047, 9.807662963867188, -0.0682484582066536, 0.2686880826950073, 1.1603119373321533, -2.2813825607299805, 0.5229785442352295, 
141, 3021917140, 12.497652053833008, -87.62248992919922, -134.8584747314453, 9.793779373168945, -0.09772852063179016, 0.21113945543766022, 1.0376968383789062, -2.2364301681518555, 0.6077873706817627, 
142, 3021925473, 12.430034637451172, -87.62677764892578, -134.78695678710938, 9.866768836975098, -0.09115367382764816, 0.23576907813549042, 1.1278076171875, -2.3369405269622803, 0.6003592014312744, 
143, 3021933806, 12.424294471740723, -87.62825775146484, -134.77703857421875, 9.747621536254883, -0.1290220320224762, 0.1860857456922531, 1.0840328931808472, -2.4007198810577393, 0.6082484722137451, 
144, 3021942139, 12.341824531555176, -87.63256072998047, -134.68997192382812, 9.861952781677246, -0.11072424054145813, 0.24253132939338684, 1.215408205986023, -2.3233134746551514, 0.6754088997840881, 
145, 3021950472, 12.337298393249512, -87.63412475585938, -134.68043518066406, 9.795525550842285, -0.1018085852265358, 0.2466481477022171, 1.1724787950515747, -2.3824310302734375, 0.6014350652694702, 
146, 3021958805, 12.250752449035645, -87.6366958618164, -134.58929443359375, 9.813458442687988, -0.11786574125289917, 0.2632550001144409, 1.2335175275802612, -2.168219566345215, 0.6621920466423035, 
147, 3021967138, 12.245452880859375, -87.638427734375, -134.57887268066406, 9.807367324829102, -0.08806775510311127, 0.2190238982439041, 1.183774709701538, -2.417189598083496, 0.6132688522338867, 
148, 3021975471, 12.172123908996582, -87.64250183105469, -134.50140380859375, 9.80601978302002, -0.1081763431429863, 0.1960066556930542, 1.167022943496704, -2.3054349422454834, 0.6209787130355835, 
149, 3021983804, 12.167960166931152, -87.64282989501953, -134.49241638183594, 9.785815238952637, -0.1019170880317688, 0.26371702551841736, 1.1592363119125366, -2.2764651775360107, 0.5751292109489441, 
150, 3021992137, 12.114991188049316, -87.64615631103516, -134.4352264404297, 9.839532852172852, -0.10257720947265625, 0.26557403802871704, 1.1881035566329956, -2.267423391342163, 0.5119133591651917, 
151, 3022000470, 12.125930786132812, -87.64566040039062, -134.4418487548828, 9.79069995880127, -0.09491090476512909, 0.29044219851493835, 1.1036533117294312, -2.18976092338562, 0.4775133728981018, 
152, 3022008803, 12.067192077636719, -87.64956665039062, -134.37948608398438, 9.786486625671387, -0.12764394283294678, 0.24636220932006836, 1.068894863128662, -2.2834064960479736, 0.5390899777412415, 
153, 3022017136, 12.072222709655762, -87.65015411376953, -134.38046264648438, 9.8450288772583, -0.08112408965826035, 0.2696222960948944, 1.086210012435913, -2.3341481685638428, 0.5389618873596191, 
154, 3022025469, 12.016005516052246, -87.65290069580078, -134.32044982910156, 9.78956413269043, -0.10348016768693924, 0.2603510618209839, 1.129113793373108, -2.215451955795288, 0.5126816630363464, 
155, 3022033802, 12.012178421020508, -87.65364837646484, -134.31219482421875, 9.847777366638184, -0.10792644321918488, 0.2395259588956833, 1.0925624370574951, -2.2860448360443115, 0.5719274878501892, 
156, 3022042135, 11.949053764343262, -87.6573257446289, -134.2462921142578, 9.748364448547363, -0.107312873005867, 0.21872395277023315, 1.0003000497817993, -2.2851226329803467, 0.5578908920288086, 
157, 3022050468, 11.959013938903809, -87.65815734863281, -134.25216674804688, 9.867643356323242, -0.08985696732997894, 0.24393077194690704, 1.0518100261688232, -2.323953866958618, 0.5096848607063293, 
158, 3022058801, 11.919556617736816, -87.66117095947266, -134.21005249023438, 9.77444076538086, -0.11309535801410675, 0.22571417689323425, 1.0074975490570068, -2.28322696685791, 0.43881019949913025, 
159, 3022067134, 11.919503211975098, -87.6612548828125, -134.20571899414062, 9.838581085205078, -0.09866558760404587, 0.2473379671573639, 1.0898983478546143, -2.2265427112579346, 0.5400888919830322, 
160, 3022075467, 11.877687454223633, -87.66502380371094, -134.15968322753906, 9.794809341430664, -0.09927169233560562, 0.23087944090366364, 1.1600559949874878, -2.290245532989502, 0.45840516686439514, 
161, 3022083800, 11.856566429138184, -87.66519165039062, -134.13348388671875, 9.81246280670166, -0.1175646111369133, 0.24675746262073517, 1.1914845705032349, -2.242090940475464, 0.6544309258460999, 
162, 3022092133, 11.796765327453613, -87.6695556640625, -134.07000732421875, 9.777841567993164, -0.10696742683649063, 0.22155466675758362, 1.0835206508636475, -2.3553829193115234, 0.558992326259613, 
163, 3022100466, 11.78858470916748, -87.66905212402344, -134.0570068359375, 9.84514331817627, -0.07729167491197586, 0.2173336148262024, 1.1750143766403198, -2.193833589553833, 0.5782797336578369, 
164, 3022108799, 11.668673515319824, -87.67123413085938, -133.93360900878906, 9.778402328491211, -0.12592175602912903, 0.21660460531711578, 1.071686863899231, -2.0718331336975098, 0.7981011867523193, 
165, 3022117132, 11.63343620300293, -87.67131805419922, -133.8929901123047, 9.858847618103027, -0.10702937096357346, 0.23752598464488983, 1.2112587690353394, -2.1847918033599854, 0.7124215364456177, 
166, 3022125465, 11.549271583557129, -87.67426300048828, -133.80484008789062, 9.742842674255371, -0.11014232784509659, 0.2825072109699249, 1.1340062618255615, -2.205923557281494, 0.6500252485275269, 
167, 3022133798, 11.52318286895752, -87.67375946044922, -133.77365112304688, 9.841837882995605, -0.11768574267625809, 0.2798943817615509, 1.1897940635681152, -2.1191680431365967, 0.6513316035270691, 
168, 3022142131, 11.468316078186035, -87.67670440673828, -133.7144012451172, 9.807225227355957, -0.09457995742559433, 0.21504828333854675, 1.1901782751083374, -2.254769802093506, 0.5163446068763733, 
169, 3022150464, 11.443099021911621, -87.6771240234375, -133.6852264404297, 9.819458961486816, -0.08743645250797272, 0.22760047018527985, 1.067639708518982, -2.2720084190368652, 0.6741026639938354, 
170, 3022158797, 11.384759902954102, -87.68185424804688, -133.62315368652344, 9.784950256347656, -0.10628745704889297, 0.21550579369068146, 1.1197646856307983, -2.4295356273651123, 0.5642431378364563, 
171, 3022167130, 11.358846664428711, -87.68370819091797, -133.5926055908203, 9.839975357055664, -0.1189839243888855, 0.2784024775028229, 1.122761607170105, -2.3982608318328857, 0.7041993737220764, 
172, 3022175463, 11.29809856414795, -87.68852996826172, -133.52830505371094, 9.764820098876953, -0.05837748944759369, 0.19397354125976562, 1.094022512435913, -2.4463131427764893, 0.5784078240394592, 
173, 3022183796, 11.28235149383545, -87.68971252441406, -133.5066375732422, 9.881739616394043, -0.1004881039261818, 0.2069832980632782, 1.2748078107833862, -2.3492095470428467, 0.650793731212616, 
174, 3022192129, 11.190380096435547, -87.69361114501953, -133.41041564941406, 9.810186386108398, -0.08554533123970032, 0.2329607754945755, 1.1984261274337769, -2.302617311477661, 0.7065302729606628, 
175, 3022200462, 11.140287399291992, -87.69352722167969, -133.35548400878906, 9.799708366394043, -0.14558930695056915, 0.3008800446987152, 1.145122766494751, -2.1666312217712402, 0.7773792147636414, 
176, 3022208795, 11.081933975219727, -87.69599151611328, -133.29342651367188, 9.827902793884277, -0.08211398124694824, 0.24723698198795319, 1.1357736587524414, -2.2125062942504883, 0.520545244216919, 
177, 3022217128, 11.043535232543945, -87.6969223022461, -133.24977111816406, 9.761347770690918, -0.12121462821960449, 0.24811536073684692, 1.1913564205169678, -2.289067268371582, 0.744208812713623, 
178, 3022225461, 10.977738380432129, -87.70152282714844, -133.1803436279297, 9.838288307189941, -0.09211424738168716, 0.19613967835903168, 1.098402500152588, -2.4053561687469482, 0.5947497487068176, 
179, 3022233794, 10.976531982421875, -87.7023696899414, -133.17376708984375, 9.77155876159668, -0.12398621439933777, 0.2119896411895752, 1.2299314737319946, -2.339296817779541, 0.5732080936431885, 
180, 3022242127, 10.891378402709961, -87.70748138427734, -133.08509826660156, 9.811822891235352, -0.11227814108133316, 0.25899484753608704, 1.0766303539276123, -2.4486441612243652, 0.6944659948348999, 
181, 3022250460, 10.877435684204102, -87.70714569091797, -133.06651306152344, 9.81263256072998, -0.09839606285095215, 0.2642196714878082, 1.1367470026016235, -2.16906476020813, 0.5982332825660706, 
182, 3022258793, 10.80523681640625, -87.71125030517578, -132.9899139404297, 9.858636856079102, -0.09475596994161606, 0.24816615879535675, 1.1750915050506592, -2.3541276454925537, 0.6158302426338196, 
183, 3022267126, 10.798300743103027, -87.71210479736328, -132.97854614257812, 9.790234565734863, -0.09691870957612991, 0.25483232736587524, 1.1005284786224365, -2.3054347038269043, 0.588653564453125, 
184, 3022275459, 10.743581771850586, -87.7160415649414, -132.91969299316406, 9.849448204040527, -0.12733915448188782, 0.2270747870206833, 1.1595436334609985, -2.3594298362731934, 0.5314569473266602, 
185, 3022283792, 10.763585090637207, -87.71621704101562, -132.93505859375, 9.735564231872559, -0.09595248103141785, 0.23339524865150452, 1.1430480480194092, -2.265732765197754, 0.4513356387615204, 
186, 3022292125, 10.695528984069824, -87.72024536132812, -132.8625030517578, 9.886411666870117, -0.08400089293718338, 0.1987411230802536, 1.2126930952072144, -2.378563165664673, 0.6018704771995544, 
187, 3022300458, 10.69346809387207, -87.71947479248047, -132.8558807373047, 9.76103687286377, -0.11963935196399689, 0.24394570291042328, 1.1334683895111084, -2.1403768062591553, 0.5358113646507263, 
188, 3022308791, 10.615720748901367, -87.72402954101562, -132.7743377685547, 9.836516380310059, -0.09621796011924744, 0.22549226880073547, 1.1029874086380005, -2.37833309173584, 0.64198237657547, 
189, 3022317124, 10.600333213806152, -87.72307586669922, -132.75450134277344, 9.807888984680176, -0.11794306337833405, 0.2512602210044861, 1.1036278009414673, -2.0910439491271973, 0.5885511636734009, 
190, 3022325457, 10.515283584594727, -87.7254867553711, -132.6650390625, 9.84434986114502, -0.12183529138565063, 0.2329128384590149, 1.167048454284668, -2.1429636478424072, 0.6380890011787415, 
191, 3022333790, 10.502094268798828, -87.72454071044922, -132.64700317382812, 9.810503959655762, -0.10245148092508316, 0.24662485718727112, 1.1807010173797607, -2.1273391246795654, 0.5883974432945251, 
192, 3022342123, 10.413814544677734, -87.72651672363281, -132.555419921875, 9.789722442626953, -0.10166280716657639, 0.21581853926181793, 1.0577269792556763, -2.113584280014038, 0.6428276896476746, 
193, 3022350456, 10.380328178405762, -87.72737884521484, -132.51718139648438, 9.822784423828125, -0.10937143862247467, 0.24233894050121307, 1.1512959003448486, -2.291142225265503, 0.7158538103103638, 
194, 3022358789, 10.293185234069824, -87.72945404052734, -132.42604064941406, 9.776165008544922, -0.11802446097135544, 0.19752579927444458, 1.1260145902633667, -2.1031081676483154, 0.6367570757865906, 
195, 3022367122, 10.27376651763916, -87.72850036621094, -132.4019775390625, 9.844651222229004, -0.08994545042514801, 0.22862683236598969, 1.1288836002349854, -2.0915048122406006, 0.6111172437667847, 
196, 3022375455, 10.186935424804688, -87.72893524169922, -132.31219482421875, 9.773726463317871, -0.1282251626253128, 0.24589990079402924, 1.0408215522766113, -1.9574910402297974, 0.6059175133705139, 
197, 3022383788, 10.169570922851562, -87.72772216796875, -132.2903289794922, 9.828771591186523, -0.11766708642244339, 0.2822679579257965, 1.1143088340759277, -2.054722785949707, 0.5937764048576355, 
198, 3022392121, 10.149849891662598, -87.7297134399414, -132.26712036132812, 9.769535064697266, -0.11020835489034653, 0.2299015372991562, 1.0958921909332275, -2.189530611038208, 0.32697853446006775, 
199, 3022400454, 10.147029876708984, -87.72936248779297, -132.2597198486328, 9.8038969039917, -0.10626170784235, 0.2019355595111847, 1.1130026578903198, -2.164121150970459, 0.541549026966095, 
200, 3022408787, 10.07456111907959, -87.73091125488281, -132.18373107910156, 9.847434997558594, -0.13371171057224274, 0.2532969117164612, 1.0780904293060303, -2.057565927505493, 0.5583263039588928, 
201, 3022417120, 10.103303909301758, -87.72945404052734, -132.20828247070312, 9.84024429321289, -0.10761254280805588, 0.25229236483573914, 1.074555516242981, -2.0813615322113037, 0.37408310174942017, 
202, 3022425453, 10.051676750183105, -87.73014068603516, -132.1529541015625, 9.806403160095215, -0.10791809856891632, 0.25199177861213684, 1.115563988685608, -1.9938633441925049, 0.44774964451789856, 
203, 3022433786, 10.046317100524902, -87.7291030883789, -132.14306640625, 9.833667755126953, -0.0960867628455162, 0.2569834291934967, 1.119764804840088, -2.1184253692626953, 0.547235369682312, 
204, 3022442119, 9.990792274475098, -87.73143005371094, -132.08322143554688, 9.802882194519043, -0.08774649351835251, 0.24564486742019653, 1.1616183519363403, -2.1402742862701416, 0.4948030412197113, 
205, 3022450452, 9.961274147033691, -87.7313461303711, -132.04881286621094, 9.784553527832031, -0.11130791902542114, 0.2409895360469818, 1.1484525203704834, -2.1911184787750244, 0.6787644028663635, 
206, 3022458785, 9.883334159851074, -87.73394012451172, -131.9683380126953, 9.793221473693848, -0.10048899799585342, 0.21544882655143738, 0.9705362915992737, -2.1764674186706543, 0.6006667017936707, 
207, 3022467118, 9.857571601867676, -87.73358917236328, -131.93804931640625, 9.810127258300781, -0.10893790423870087, 0.255736380815506, 1.1184840202331543, -2.169218063354492, 0.6540210843086243, 
208, 3022475451, 9.789960861206055, -87.7342758178711, -131.8660888671875, 9.818161964416504, -0.11146434396505356, 0.2619860768318176, 1.166305661201477, -1.9777263402938843, 0.526513397693634, 
209, 3022483784, 9.784430503845215, -87.73298645019531, -131.8564910888672, 9.788053512573242, -0.11390794813632965, 0.19655783474445343, 1.065001368522644, -2.066530704498291, 0.5376555919647217, 
210, 3022492117, 9.70197582244873, -87.73566436767578, -131.7698974609375, 9.831876754760742, -0.12514133751392365, 0.24944333732128143, 1.166613221168518, -2.2154006958007812, 0.6378841400146484, 
211, 3022500450, 9.69925594329834, -87.73532104492188, -131.76181030273438, 9.785091400146484, -0.10507365316152573, 0.2554752230644226, 1.2378720045089722, -2.2031829357147217, 0.5550220608711243, 
212, 3022508783, 9.650014877319336, -87.73799896240234, -131.70851135253906, 9.82524299621582, -0.10375466197729111, 0.25611376762390137, 1.1220186948776245, -2.213198184967041, 0.4757203757762909, 
213, 3022517116, 9.674566268920898, -87.73947143554688, -131.72853088378906, 9.80724811553955, -0.1197122186422348, 0.22098395228385925, 1.110799789428711, -2.397364377975464, 0.45097699761390686, 
214, 3022525449, 9.625499725341797, -87.7437973022461, -131.6754608154297, 9.790063858032227, -0.10099277645349503, 0.25859344005584717, 1.1478636264801025, -2.424489974975586, 0.511810839176178, 
215, 3022533782, 9.628074645996094, -87.74398040771484, -131.67332458496094, 9.822110176086426, -0.10246985405683517, 0.22169005870819092, 1.1448923349380493, -2.259380340576172, 0.5349661707878113, 
216, 3022542115, 9.611000061035156, -87.74797058105469, -131.652099609375, 9.787327766418457, -0.08724715560674667, 0.22484274208545685, 1.1496310234069824, -2.399387836456299, 0.3546419143676758, 
217, 3022550448, 9.590534210205078, -87.74901580810547, -131.62672424316406, 9.81002426147461, -0.09996383637189865, 0.2426876574754715, 1.171095609664917, -2.3524625301361084, 0.66124427318573, 
218, 3022558781, 9.495646476745605, -87.75284576416016, -131.52789306640625, 9.79124927520752, -0.11505493521690369, 0.19992603361606598, 1.1455326080322266, -2.3466227054595947, 0.7186201810836792, 
219, 3022567114, 9.47320556640625, -87.75370788574219, -131.5009002685547, 9.83938217163086, -0.09291750937700272, 0.2613345682621002, 1.1320339441299438, -2.3201375007629395, 0.6639082431793213, 
220, 3022575447, 9.401714324951172, -87.75711059570312, -131.42514038085938, 9.778280258178711, -0.0902891755104065, 0.23962180316448212, 1.1799068450927734, -2.3305881023406982, 0.6042525768280029, 
221, 3022583780, 9.393340110778809, -87.75824737548828, -131.41232299804688, 9.835478782653809, -0.12001077085733414, 0.22106556594371796, 1.091281771659851, -2.3333799839019775, 0.5957999229431152, 
222, 3022592113, 9.316296577453613, -87.76244354248047, -131.33157348632812, 9.813036918640137, -0.11223975569009781, 0.1987488865852356, 1.0897704362869263, -2.369624137878418, 0.6326332688331604, 
223, 3022600446, 9.316025733947754, -87.76296997070312, -131.32630920410156, 9.833699226379395, -0.09395985305309296, 0.21909014880657196, 1.1434322595596313, -2.2496471405029297, 0.5462875962257385, 
224, 3022608779, 9.258776664733887, -87.76541900634766, -131.2652130126953, 9.784055709838867, -0.09204708784818649, 0.24417519569396973, 1.1104154586791992, -2.2112767696380615, 0.5130146741867065, 
225, 3022617112, 9.2380952835083, -87.76594543457031, -131.24021911621094, 9.815764427185059, -0.10243216156959534, 0.2671792507171631, 1.100963830947876, -2.294523239135742, 0.649179995059967, 
226, 3022625445, 9.18704891204834, -87.76936340332031, -131.18533325195312, 9.783540725708008, -0.12636280059814453, 0.2660105526447296, 1.135440468788147, -2.3226218223571777, 0.5026665329933167, 
227, 3022633778, 9.18705940246582, -87.77015686035156, -131.18138122558594, 9.809320449829102, -0.1080712303519249, 0.26370659470558167, 1.0418717861175537, -2.300337791442871, 0.5490795373916626, 
228, 3022642111, 9.136527061462402, -87.77349090576172, -131.12718200683594, 9.791751861572266, -0.10436052829027176, 0.25163644552230835, 1.110338568687439, -2.3512074947357178, 0.5042546391487122, 
229, 3022650444, 9.130036354064941, -87.77481079101562, -131.114990234375, 9.84184455871582, -0.0917801484465599, 0.22571925818920135, 1.2612833976745605, -2.3786659240722656, 0.5999494791030884, 
230, 3022658777, 9.087767601013184, -87.77763366699219, -131.06857299804688, 9.772481918334961, -0.09746003150939941, 0.23327067494392395, 1.130676507949829, -2.2280542850494385, 0.44593098759651184, 
231, 3022667110, 9.09550666809082, -87.7784194946289, -131.0719451904297, 9.801833152770996, -0.08162051439285278, 0.22041918337345123, 1.107879638671875, -2.3452394008636475, 0.5229274034500122, 
232, 3022675443, 9.031349182128906, -87.78353881835938, -131.00421142578125, 9.811859130859375, -0.11106473207473755, 0.2323029637336731, 1.095892310142517, -2.5273308753967285, 0.5956462621688843, 
233, 3022683776, 9.03738784790039, -87.78379821777344, -131.0049285888672, 9.837987899780273, -0.10735844075679779, 0.2688329219818115, 1.2116942405700684, -2.260200023651123, 0.5215186476707458, 
234, 3022692109, 8.978849411010742, -87.78680419921875, -130.9426727294922, 9.782599449157715, -0.08630436658859253, 0.23129335045814514, 1.1193548440933228, -2.2970333099365234, 0.5331475138664246, 
235, 3022700442, 8.984678268432617, -87.78760528564453, -130.94357299804688, 9.801557540893555, -0.11936376243829727, 0.2539028227329254, 1.143099308013916, -2.291398286819458, 0.5234397053718567, 
236, 3022708775, 8.944143295288086, -87.79061126708984, -130.89952087402344, 9.841632843017578, -0.11395011842250824, 0.21682800352573395, 1.0965582132339478, -2.303846836090088, 0.45043912529945374, 
237, 3022717108, 8.939844131469727, -87.78937530517578, -130.89120483398438, 9.813800811767578, -0.08866047114133835, 0.2611948549747467, 1.0636439323425293, -2.097165584564209, 0.5366823077201843, 
238, 3022725441, 8.880861282348633, -87.7907943725586, -130.82794189453125, 9.801843643188477, -0.09575691819190979, 0.23765099048614502, 1.1621562242507935, -2.0707058906555176, 0.5028970837593079, 
239, 3022733774, 8.881683349609375, -87.79052734375, -130.8243865966797, 9.807601928710938, -0.11534298211336136, 0.24737975001335144, 1.1109278202056885, -2.2026453018188477, 0.532097339630127, 
240, 3022742107, 8.846169471740723, -87.79283142089844, -130.7855682373047, 9.78826904296875, -0.1205044537782669, 0.2382209450006485, 1.0372356176376343, -2.2181670665740967, 0.4107626676559448, 
241, 3022750440, 8.860003471374512, -87.79291534423828, -130.79574584960938, 9.780553817749023, -0.10748425126075745, 0.21865487098693848, 1.0320872068405151, -2.2569470405578613, 0.47648876905441284, 
242, 3022758773, 8.813275337219238, -87.7962875366211, -130.74525451660156, 9.817961692810059, -0.09997517615556717, 0.25590434670448303, 1.0652064085006714, -2.3028478622436523, 0.47789761424064636, 
243, 3022767106, 8.814566612243652, -87.79611206054688, -130.74166870117188, 9.823986053466797, -0.10881491750478745, 0.2828558087348938, 1.1748353242874146, -2.2176804542541504, 0.5347355604171753, 
244, 3022775439, 8.740578651428223, -87.80046081542969, -130.66412353515625, 9.823551177978516, -0.10120707750320435, 0.2463247925043106, 1.0866199731826782, -2.4181630611419678, 0.6229510307312012, 
245, 3022783772, 8.761504173278809, -87.80144500732422, -130.68080139160156, 9.845260620117188, -0.10652905702590942, 0.24166317284107208, 1.0792430639266968, -2.3654747009277344, 0.46224725246429443, 
246, 3022792105, 8.716285705566406, -87.8042984008789, -130.6321258544922, 9.791382789611816, -0.08591557294130325, 0.20477281510829926, 1.064873456954956, -2.255051612854004, 0.4631694257259369, 
247, 3022800438, 8.727054595947266, -87.8042984008789, -130.6382598876953, 9.83156967163086, -0.09939287602901459, 0.22474709153175354, 1.126245141029358, -2.2193710803985596, 0.4891422986984253, 
248, 3022808771, 8.641024589538574, -87.80679321289062, -130.548828125, 9.790143013000488, -0.06978096067905426, 0.25071433186531067, 1.0866199731826782, -2.2421679496765137, 0.6508193612098694, 
249, 3022817104, 8.62355899810791, -87.8071517944336, -130.52610778808594, 9.823739051818848, -0.0926758199930191, 0.21385683119297028, 1.191125750541687, -2.237326145172119, 0.6253074407577515, 
250, 3022825437, 8.517178535461426, -87.81098937988281, -130.41488647460938, 9.82712459564209, -0.11199662834405899, 0.24003110826015472, 1.2433022260665894, -2.380330801010132, 0.7739468812942505, 
251, 3022833770, 8.492058753967285, -87.81233215332031, -130.38601684570312, 9.771331787109375, -0.11199093610048294, 0.22362259030342102, 1.0298588275909424, -2.3809969425201416, 0.6766897439956665, 
252, 3022842103, 8.388641357421875, -87.8166275024414, -130.2787628173828, 9.831731796264648, -0.11371273547410965, 0.2427113652229309, 1.089411735534668, -2.401334762573242, 0.7551204562187195, 
253, 3022850436, 8.364204406738281, -87.8166275024414, -130.2501983642578, 9.82452392578125, -0.10520623624324799, 0.192660391330719, 1.065616250038147, -2.1901707649230957, 0.6446462869644165, 
254, 3022858769, 8.289464950561523, -87.81851959228516, -130.1718292236328, 9.78966999053955, -0.10174918919801712, 0.24458053708076477, 1.0864150524139404, -2.1443471908569336, 0.5835050940513611, 
255, 3022867102, 8.26504898071289, -87.81877899169922, -130.1427764892578, 9.82075309753418, -0.13207858800888062, 0.24446679651737213, 1.1357736587524414, -2.2482638359069824, 0.6567105650901794, 
256, 3022875435, 8.201153755187988, -87.82219696044922, -130.07481384277344, 9.819742202758789, -0.1005927249789238, 0.20626266300678253, 1.1262964010238647, -2.319112777709961, 0.5595557689666748, 
257, 3022883768, 8.182684898376465, -87.82112121582031, -130.0513458251953, 9.83049488067627, -0.114244244992733, 0.22823414206504822, 1.1774736642837524, -2.0704243183135986, 0.6048673391342163, 
258, 3022892101, 8.113077163696289, -87.82328033447266, -129.97792053222656, 9.813728332519531, -0.11864389479160309, 0.22383740544319153, 1.1304972171783447, -2.2268760204315186, 0.5741559267044067, 
259, 3022900434, 8.127950668334961, -87.82381439208984, -129.98834228515625, 9.813998222351074, -0.10961771011352539, 0.25835752487182617, 1.0943553447723389, -2.281331777572632, 0.4775133728981018, 
260, 3022908767, 8.068714141845703, -87.82552337646484, -129.92515563964844, 9.834693908691406, -0.12797608971595764, 0.23107443749904633, 1.1319315433502197, -2.1550283432006836, 0.5172154307365417, 
261, 3022917100, 8.093682289123535, -87.82525634765625, -129.94586181640625, 9.817338943481445, -0.08881928771734238, 0.25019174814224243, 1.0895655155181885, -2.210354804992676, 0.42041927576065063, 
262, 3022925433, 8.055757522583008, -87.82759094238281, -129.90353393554688, 9.820068359375, -0.09684077650308609, 0.23477628827095032, 1.1779345273971558, -2.2186026573181152, 0.42961475253105164, 
263, 3022933766, 8.06496810913086, -87.8277816772461, -129.90724182128906, 9.823369979858398, -0.0979398563504219, 0.26966553926467896, 1.2153059244155884, -2.2239561080932617, 0.5010016560554504, 
264, 3022942099, 8.003148078918457, -87.82966613769531, -129.84141540527344, 9.808130264282227, -0.12386772036552429, 0.2501748502254486, 1.152474045753479, -2.195882558822632, 0.5358113646507263, 
265, 3022950432, 7.992551803588867, -87.82894897460938, -129.8259735107422, 9.826749801635742, -0.10791581124067307, 0.2539712190628052, 1.1661008596420288, -2.144807815551758, 0.5794067978858948, 
266, 3022958765, 7.913254737854004, -87.83155822753906, -129.7421417236328, 9.78313159942627, -0.1160459965467453, 0.21124447882175446, 1.1958644390106201, -2.2505435943603516, 0.6247439384460449, 
267, 3022967098, 7.893612384796143, -87.83174896240234, -129.71786499023438, 9.829161643981934, -0.09752443432807922, 0.25617024302482605, 1.1221212148666382, -2.214632511138916, 0.6280226707458496, 
268, 3022975431, 7.815829753875732, -87.83418273925781, -129.63600158691406, 9.814552307128906, -0.11105700582265854, 0.24453438818454742, 1.1488112211227417, -2.2295656204223633, 0.6127565503120422, 
269, 3022983764, 7.792922496795654, -87.83436584472656, -129.60867309570312, 9.783050537109375, -0.07948601245880127, 0.2214449644088745, 1.0812153816223145, -2.2079217433929443, 0.6405736207962036, 
270, 3022992097, 7.7321977615356445, -87.837890625, -129.54432678222656, 9.767366409301758, -0.09720560163259506, 0.24050357937812805, 1.0663334131240845, -2.361504316329956, 0.5501553416252136, 
271, 3023000430, 7.726957321166992, -87.83779907226562, -129.53558349609375, 9.830758094787598, -0.1333625465631485, 0.21544091403484344, 1.0325226783752441, -2.2313072681427, 0.5610926151275635, 
272, 3023008763, 7.640027046203613, -87.83997344970703, -129.4443359375, 9.814720153808594, -0.10562781244516373, 0.2177027016878128, 1.1623612642288208, -2.1953961849212646, 0.6501277685165405, 
273, 3023017096, 7.64902925491333, -87.84060668945312, -129.44947814941406, 9.74994945526123, -0.12009871006011963, 0.23960185050964355, 1.0427427291870117, -2.3013620376586914, 0.505099892616272, 
274, 3023025429, 7.589723587036133, -87.84378051757812, -129.3855743408203, 9.800742149353027, -0.12132405489683151, 0.26271408796310425, 1.164717674255371, -2.2701640129089355, 0.5345563292503357, 
275, 3023033762, 7.5953497886657715, -87.8452377319336, -129.38693237304688, 9.815281867980957, -0.06972535699605942, 0.23075653612613678, 1.11005699634552, -2.433096408843994, 0.5413953065872192, 
276, 3023042095, 7.527263641357422, -87.84832000732422, -129.31568908691406, 9.835968971252441, -0.13643306493759155, 0.24989759922027588, 1.0353658199310303, -2.3062801361083984, 0.5744632482528687, 
277, 3023050428, 7.529253005981445, -87.84796142578125, -129.31285095214844, 9.840348243713379, -0.10834354907274246, 0.21037785708904266, 1.1668692827224731, -2.200416326522827, 0.5293053388595581, 
278, 3023058761, 7.447291851043701, -87.85142517089844, -129.22593688964844, 9.804203033447266, -0.10738538950681686, 0.25967463850975037, 1.2122576236724854, -2.2943694591522217, 0.6423153281211853, 
279, 3023067094, 7.467410087585449, -87.85142517089844, -129.24107360839844, 9.800049781799316, -0.09318913519382477, 0.24196398258209229, 1.1557271480560303, -2.230769395828247, 0.4500037133693695, 
280, 3023075427, 7.3930182456970215, -87.85405731201172, -129.1619110107422, 9.787505149841309, -0.12166725099086761, 0.22922544181346893, 1.233133316040039, -2.2796924114227295, 0.6058406829833984, 
281, 3023083760, 7.3701581954956055, -87.85643768310547, -129.1334228515625, 9.788616180419922, -0.10161752253770828, 0.2549985349178314, 1.2687627077102661, -2.5120139122009277, 0.6857571601867676, 
282, 3023092093, 7.264239311218262, -87.86027526855469, -129.02337646484375, 9.858796119689941, -0.14099068939685822, 0.23052950203418732, 1.1310607194900513, -2.3726723194122314, 0.7562731504440308, 
283, 3023100426, 7.2420172691345215, -87.86119079589844, -128.99557495117188, 9.782038688659668, -0.11429212987422943, 0.22044342756271362, 1.2342090606689453, -2.2970077991485596, 0.6544820666313171, 
284, 3023108759, 7.1603240966796875, -87.86485290527344, -128.9091033935547, 9.800020217895508, -0.10707735270261765, 0.27698320150375366, 1.2393319606781006, -2.4008736610412598, 0.6534320116043091, 
285, 3023117092, 7.144742012023926, -87.86640930175781, -128.88821411132812, 9.799593925476074, -0.1236158087849617, 0.18933062255382538, 1.1815463304519653, -2.3645269870758057, 0.6282787322998047, 
286, 3023125425, 7.068424224853516, -87.87035369873047, -128.80772399902344, 9.823704719543457, -0.11376658082008362, 0.22144611179828644, 1.1396925449371338, -2.411170482635498, 0.6268956065177917, 
287, 3023133758, 7.078840255737305, -87.86962890625, -128.81394958496094, 9.781566619873047, -0.10829092562198639, 0.2423717975616455, 1.1008614301681519, -2.1726250648498535, 0.48532575368881226, 
288, 3023142091, 7.0219879150390625, -87.87247467041016, -128.75245666503906, 9.8309965133667, -0.10717353224754333, 0.22887395322322845, 1.2019351720809937, -2.284508228302002, 0.5245923399925232, 
289, 3023150424, 7.040618419647217, -87.87191772460938, -128.76683044433594, 9.775837898254395, -0.10028216987848282, 0.2531247138977051, 1.1017322540283203, -2.197880744934082, 0.4513612687587738, 
290, 3023158757, 6.9900689125061035, -87.87394714355469, -128.71331787109375, 9.810248374938965, -0.10154654085636139, 0.22909201681613922, 1.0101613998413086, -2.2206006050109863, 0.4819958806037903, 
291, 3023167090, 6.9730329513549805, -87.87274932861328, -128.6919403076172, 9.823792457580566, -0.10197608917951584, 0.21759264171123505, 1.0669736862182617, -2.0323870182037354, 0.5896524786949158, 
292, 3023175423, 6.883007526397705, -87.87459564208984, -128.59803771972656, 9.834101676940918, -0.11782040446996689, 0.2347632348537445, 1.0896424055099487, -2.1092042922973633, 0.648181140422821, 
293, 3023183756, 6.86029577255249, -87.87293243408203, -128.5714111328125, 9.77204418182373, -0.09787346422672272, 0.2346055656671524, 1.0501708984375, -2.024984359741211, 0.6149336695671082, 
294, 3023192089, 6.779580116271973, -87.87523651123047, -128.4869842529297, 9.832305908203125, -0.12921258807182312, 0.2475939840078354, 1.1237860918045044, -2.2764651775360107, 0.6295338273048401, 
295, 3023200422, 6.759811878204346, -87.8747787475586, -128.4624481201172, 9.814175605773926, -0.08975570648908615, 0.24859628081321716, 1.1472744941711426, -2.154874563217163, 0.6192113161087036, 
296, 3023208755, 6.710516452789307, -87.87699127197266, -128.4088897705078, 9.819138526916504, -0.10219553112983704, 0.24497129023075104, 1.1527303457260132, -2.2292072772979736, 0.48563313484191895, 
297, 3023217088, 6.685604095458984, -87.87726593017578, -128.37908935546875, 9.803756713867188, -0.1128803938627243, 0.24264344573020935, 1.1638981103897095, -2.254488229751587, 0.6549688577651978, 
298, 3023225421, 6.609778881072998, -87.8803939819336, -128.29896545410156, 9.800925254821777, -0.12989796698093414, 0.1921033263206482, 1.1440215110778809, -2.2996461391448975, 0.6097596287727356, 
299, 3023233754, 6.603753089904785, -87.88031005859375, -128.2886199951172, 9.839057922363281, -0.11555033922195435, 0.2285425066947937, 1.072096586227417, -2.178311347961426, 0.5584543347358704, 
300, 3023242087, 6.550190448760986, -87.88206481933594, -128.23146057128906, 9.82133674621582, -0.12044572830200195, 0.25275713205337524, 1.0970193147659302, -2.20389986038208, 0.4974925220012665, 
301, 3023250420, 6.533558368682861, -87.88233947753906, -128.2103271484375, 9.820615768432617, -0.12945659458637238, 0.2240728884935379, 1.0948420763015747, -2.2262613773345947, 0.6124235987663269, 
302, 3023258753, 6.502286911010742, -87.8843765258789, -128.17514038085938, 9.821450233459473, -0.11587467789649963, 0.19265764951705933, 1.1466084718704224, -2.265963315963745, 0.40820130705833435, 
303, 3023267086, 6.532553195953369, -87.88391876220703, -128.2013397216797, 9.82267951965332, -0.11423029750585556, 0.22530832886695862, 1.0579830408096313, -2.1706271171569824, 0.39572709798812866, 
304, 3023275419, 6.488099575042725, -87.88733673095703, -128.15272521972656, 9.802127838134766, -0.08477476239204407, 0.23030567169189453, 1.1246825456619263, -2.353768825531006, 0.47587406635284424, 
305, 3023283752, 6.498220920562744, -87.88697052001953, -128.157958984375, 9.786785125732422, -0.08430222421884537, 0.23625600337982178, 1.1896404027938843, -2.2136335372924805, 0.49475181102752686, 
306, 3023292085, 6.448524475097656, -87.89030456542969, -128.10348510742188, 9.802692413330078, -0.13146667182445526, 0.2409403920173645, 1.2018839120864868, -2.3536410331726074, 0.5020262002944946, 
307, 3023300418, 6.46868371963501, -87.89067840576172, -128.1182098388672, 9.799280166625977, -0.11231273412704468, 0.22472701966762543, 1.2337993383407593, -2.2890162467956543, 0.46050548553466797, 
308, 3023308751, 6.400937557220459, -87.89160919189453, -128.04689025878906, 9.822385787963867, -0.09679948538541794, 0.2268098145723343, 1.060544490814209, -2.052443027496338, 0.5451861619949341, 
309, 3023317084, 6.4001336097717285, -87.89244079589844, -128.04151916503906, 9.831123352050781, -0.11542307585477829, 0.21931488811969757, 1.0940481424331665, -2.2990314960479736, 0.5504883527755737, 
310, 3023325417, 6.349425315856934, -87.89457702636719, -127.98673248291016, 9.790489196777344, -0.11093467473983765, 0.23094870150089264, 1.154958724975586, -2.2638373374938965, 0.4954177439212799, 
311, 3023333750, 6.375077724456787, -87.8939208984375, -128.0071563720703, 9.802348136901855, -0.12702441215515137, 0.22210536897182465, 1.191253900527954, -2.1324617862701416, 0.4160648286342621, 
312, 3023342083, 6.303679466247559, -87.8979263305664, -127.93175506591797, 9.806817054748535, -0.10160676389932632, 0.21709996461868286, 1.1119011640548706, -2.4434187412261963, 0.6053540110588074, 
313, 3023350416, 6.2966203689575195, -87.8990478515625, -127.92078399658203, 9.814811706542969, -0.10983401536941528, 0.24588605761528015, 1.068766713142395, -2.3646292686462402, 0.5836074948310852, 
314, 3023358749, 6.234498023986816, -87.90230560302734, -127.85533905029297, 9.806199073791504, -0.11062923818826675, 0.23860123753547668, 1.012364149093628, -2.3370940685272217, 0.5499247908592224, 
315, 3023367082, 6.2357096672058105, -87.90277099609375, -127.85259246826172, 9.817166328430176, -0.11280777305364609, 0.26446765661239624, 1.0635159015655518, -2.290245771408081, 0.5379886031150818, 
316, 3023375415, 6.1785888671875, -87.90435791015625, -127.7918472290039, 9.79309368133545, -0.11671849340200424, 0.2366236299276352, 1.0982487201690674, -2.1890437602996826, 0.5145003199577332, 
317, 3023383748, 6.195132732391357, -87.90370178222656, -127.80379486083984, 9.804746627807617, -0.10369547456502914, 0.2404279112815857, 1.131393551826477, -2.1784136295318604, 0.4612739384174347, 
318, 3023392081, 6.162291526794434, -87.90613555908203, -127.76670837402344, 9.792366027832031, -0.09714698046445847, 0.2436181753873825, 1.1352357864379883, -2.2384283542633057, 0.41573187708854675, 
319, 3023400414, 6.1684770584106445, -87.90576171875, -127.76824951171875, 9.824013710021973, -0.11233340203762054, 0.22068482637405396, 1.1339292526245117, -2.191246509552002, 0.5069953203201294, 
320, 3023408747, 6.1325178146362305, -87.90884399414062, -127.72824096679688, 9.811985969543457, -0.10502448678016663, 0.2343367040157318, 1.1111327409744263, -2.3187289237976074, 0.4367099106311798, 
321, 3023417080, 6.141960144042969, -87.90940856933594, -127.73265075683594, 9.820351600646973, -0.09958898276090622, 0.22459416091442108, 1.1811364889144897, -2.2941133975982666, 0.5061756372451782, 
322, 3023425413, 6.079334259033203, -87.91268157958984, -127.66532135009766, 9.796881675720215, -0.11125431954860687, 0.22140295803546906, 1.2184820175170898, -2.3553311824798584, 0.5619634985923767, 
323, 3023433746, 6.097712516784668, -87.91343688964844, -127.67755889892578, 9.82025146484375, -0.11452323198318481, 0.23508240282535553, 1.3146891593933105, -2.3293073177337646, 0.4757460057735443, 
324, 3023442079, 6.027749061584473, -87.91475677490234, -127.6036148071289, 9.815649032592773, -0.09843096137046814, 0.24651627242565155, 1.1245546340942383, -2.1448850631713867, 0.5684695839881897, 
325, 3023450412, 5.988892555236816, -87.9149398803711, -127.55956268310547, 9.801509857177734, -0.09513390064239502, 0.2251901477575302, 1.1856698989868164, -2.2187561988830566, 0.7105004191398621, 
326, 3023458745, 5.902705192565918, -87.9178466796875, -127.4688720703125, 9.79997730255127, -0.07771602272987366, 0.2082361876964569, 1.2005263566970825, -2.3217766284942627, 0.6604502201080322, 
327, 3023467078, 5.891864776611328, -87.9178466796875, -127.4528579711914, 9.808507919311523, -0.10060258954763412, 0.23537775874137878, 1.1771150827407837, -2.2012875080108643, 0.5863226056098938, 
328, 3023475411, 5.81342077255249, -87.91963958740234, -127.37113189697266, 9.791412353515625, -0.11172863095998764, 0.22657881677150726, 1.0488389730453491, -2.2254674434661865, 0.6110661029815674, 
329, 3023483744, 5.810260772705078, -87.92048645019531, -127.36275482177734, 9.801727294921875, -0.11624089628458023, 0.24743182957172394, 1.2091584205627441, -2.3160645961761475, 0.564985990524292, 
330, 3023492077, 5.751094341278076, -87.92359161376953, -127.2997817993164, 9.82447338104248, -0.11094159632921219, 0.24248771369457245, 1.1029616594314575, -2.3501315116882324, 0.5411903858184814, 
331, 3023500410, 5.7454705238342285, -87.92434692382812, -127.28910064697266, 9.788979530334473, -0.08923666179180145, 0.2272300124168396, 1.1778322458267212, -2.3014135360717773, 0.5731825232505798, 
332, 3023508743, 5.690305233001709, -87.92698669433594, -127.22924041748047, 9.812060356140137, -0.0994591936469078, 0.21456362307071686, 1.19719660282135, -2.296546697616577, 0.5208269953727722, 
333, 3023517076, 5.699953556060791, -87.9273681640625, -127.23444366455078, 9.836454391479492, -0.10307935625314713, 0.21984773874282837, 1.121045470237732, -2.2860960960388184, 0.5034605860710144, 
334, 3023525409, 5.656186103820801, -87.92897033691406, -127.18742370605469, 9.824633598327637, -0.09866552799940109, 0.1979997307062149, 1.0247102975845337, -2.171293020248413, 0.4537689685821533, 
335, 3023533742, 5.667910099029541, -87.9285888671875, -127.19530487060547, 9.831534385681152, -0.11390307545661926, 0.2248963862657547, 1.0128508806228638, -2.1599204540252686, 0.47671934962272644, 
336, 3023542075, 5.6281633377075195, -87.93133544921875, -127.15144348144531, 9.802406311035156, -0.10835791379213333, 0.22354857623577118, 1.1389498710632324, -2.325772762298584, 0.4559974670410156, 
337, 3023550408, 5.599144458770752, -87.93180847167969, -127.11840057373047, 9.849628448486328, -0.11876887083053589, 0.23292019963264465, 1.0512211322784424, -2.2569215297698975, 0.6654194593429565, 
338, 3023558741, 5.540531635284424, -87.93474578857422, -127.05579376220703, 9.817476272583008, -0.1049724593758583, 0.2189520001411438, 1.1204050779342651, -2.3184468746185303, 0.5370151996612549, 
339, 3023567074, 5.5351481437683105, -87.93370056152344, -127.0455093383789, 9.814376831054688, -0.10532219707965851, 0.2518696188926697, 1.1528071165084839, -2.096320390701294, 0.5495150089263916, 
340, 3023575407, 5.468812942504883, -87.93531036376953, -126.97481536865234, 9.793295860290527, -0.10822439193725586, 0.2550809979438782, 1.1886670589447021, -2.206256628036499, 0.56316739320755, 
341, 3023583740, 5.467237949371338, -87.93511962890625, -126.96842193603516, 9.794900894165039, -0.09958995133638382, 0.21143238246440887, 1.133878231048584, -2.167656183242798, 0.540370762348175, 
342, 3023592073, 5.412563800811768, -87.93578338623047, -126.90975189208984, 9.814399719238281, -0.1232067421078682, 0.20872198045253754, 1.1371054649353027, -2.1058743000030518, 0.5011810064315796, 
343, 3023600406, 5.4201273918151855, -87.93531036376953, -126.9132080078125, 9.816444396972656, -0.12310341745615005, 0.2558194398880005, 1.0631316900253296, -2.1700637340545654, 0.4975949823856354, 
344, 3023608739, 5.354998588562012, -87.93540954589844, -126.84381103515625, 9.821385383605957, -0.11772971600294113, 0.23894184827804565, 1.1534216403961182, -1.999754548072815, 0.5394997596740723, 
345, 3023617072, 5.3657965660095215, -87.93455505371094, -126.8495101928711, 9.79239273071289, -0.10037779808044434, 0.23046648502349854, 1.1911259889602661, -2.13466477394104, 0.48491591215133667, 
346, 3023625405, 5.315040588378906, -87.9356918334961, -126.79443359375, 9.829702377319336, -0.1062023788690567, 0.22657455503940582, 1.1315730810165405, -2.0929648876190186, 0.48207274079322815, 
347, 3023633738, 5.3195695877075195, -87.93550109863281, -126.79478454589844, 9.793810844421387, -0.08753063529729843, 0.2267511934041977, 1.0488388538360596, -2.1622767448425293, 0.5102739334106445, 
348, 3023642071, 5.265666484832764, -87.93578338623047, -126.73651123046875, 9.796217918395996, -0.11757108569145203, 0.2598969638347626, 1.1780883073806763, -2.0398664474487305, 0.49554580450057983, 
349, 3023650404, 5.293873310089111, -87.93645477294922, -126.75942993164062, 9.826573371887207, -0.10716520249843597, 0.21651187539100647, 1.2149728536605835, -2.314784288406372, 0.4278986155986786, 
350, 3023658737, 5.258029460906982, -87.9388198852539, -126.71910858154297, 9.809662818908691, -0.09436323493719101, 0.1929798126220703, 1.1520898342132568, -2.24375581741333, 0.43540358543395996, 
351, 3023667070, 5.250235557556152, -87.93834686279297, -126.70668029785156, 9.826420783996582, -0.09079284220933914, 0.24699047207832336, 1.1443288326263428, -2.194755792617798, 0.57023686170578, 
352, 3023675403, 5.192315578460693, -87.93948364257812, -126.64480590820312, 9.798114776611328, -0.09599459171295166, 0.23487402498722076, 1.1274745464324951, -2.133307456970215, 0.5199818015098572, 
353, 3023683736, 5.175734043121338, -87.9396743774414, -126.62284088134766, 9.802454948425293, -0.10651981830596924, 0.23446381092071533, 1.220889687538147, -2.232741594314575, 0.6143446564674377, 
354, 3023692069, 5.09529447555542, -87.94071960449219, -126.53762817382812, 9.803702354431152, -0.0997791662812233, 0.2507769465446472, 1.225807547569275, -2.1273133754730225, 0.6202359199523926, 
355, 3023700402, 5.093420028686523, -87.94139099121094, -126.53067779541016, 9.848989486694336, -0.07890921831130981, 0.2577263116836548, 1.1570334434509277, -2.2924485206604004, 0.5541255474090576, 
356, 3023708735, 5.017136573791504, -87.94300079345703, -126.44999694824219, 9.752472877502441, -0.13637901842594147, 0.24616140127182007, 1.180649757385254, -2.181718349456787, 0.6064554452896118, 
357, 3023717068, 4.978955268859863, -87.94329071044922, -126.40725708007812, 9.838362693786621, -0.08530137687921524, 0.23271878063678741, 1.1363627910614014, -2.2604050636291504, 0.706914484500885, 
358, 3023725401, 4.892662525177002, -87.94500732421875, -126.31604766845703, 9.750054359436035, -0.10491888225078583, 0.24052506685256958, 1.2235791683197021, -2.17621111869812, 0.6515365839004517, 
359, 3023733734, 4.871792793273926, -87.94461822509766, -126.29081726074219, 9.813101768493652, -0.1118704155087471, 0.23721036314964294, 1.0738638639450073, -2.1547975540161133, 0.6201333999633789, 
360, 3023742067, 4.791633129119873, -87.94671630859375, -126.206787109375, 9.798604011535645, -0.09094218164682388, 0.2529270052909851, 1.113207459449768, -2.253002643585205, 0.6278433203697205, 
361, 3023750400, 4.799644947052002, -87.94729614257812, -126.20970916748047, 9.816495895385742, -0.12822873890399933, 0.2823517918586731, 1.1919456720352173, -2.2835605144500732, 0.512092649936676, 
362, 3023758733, 4.767655372619629, -87.9483413696289, -126.1739501953125, 9.819751739501953, -0.07619956880807877, 0.20726846158504486, 1.1069833040237427, -2.156564950942993, 0.4106346070766449, 
363, 3023767066, 4.787605285644531, -87.9491958618164, -126.189697265625, 9.846145629882812, -0.08960109204053879, 0.2716352343559265, 1.0842633247375488, -2.3273863792419434, 0.459737092256546, 
364, 3023775399, 4.753504753112793, -87.9516830444336, -126.15174865722656, 9.760594367980957, -0.10591147840023041, 0.19075748324394226, 1.0809848308563232, -2.286531686782837, 0.43204814195632935, 
365, 3023783732, 4.757763862609863, -87.9517822265625, -126.15153503417969, 9.795501708984375, -0.11842253059148788, 0.2601655423641205, 1.0979926586151123, -2.2150423526763916, 0.5181119441986084, 
366, 3023792065, 4.697164535522461, -87.95368957519531, -126.08724975585938, 9.889269828796387, -0.09641151875257492, 0.22884014248847961, 1.1028847694396973, -2.2473926544189453, 0.5433163046836853, 
367, 3023800398, 4.716109752655029, -87.95465087890625, -126.1025619506836, 9.719791412353516, -0.11791705340147018, 0.23051711916923523, 1.0384395122528076, -2.3758997917175293, 0.46498802304267883, 
368, 3023808731, 4.664857864379883, -87.95560455322266, -126.0475082397461, 9.85289478302002, -0.11538220196962357, 0.2529582679271698, 1.0802676677703857, -2.1042606830596924, 0.49198541045188904, 
369, 3023817064, 4.695345401763916, -87.9549331665039, -126.07363891601562, 9.80453872680664, -0.0899544432759285, 0.27101030945777893, 1.1066502332687378, -2.1804373264312744, 0.40271979570388794, 
370, 3023825397, 4.654614448547363, -87.95665740966797, -126.02879333496094, 9.767410278320312, -0.10304079949855804, 0.23206686973571777, 1.091742753982544, -2.147599935531616, 0.4507209360599518, 
371, 3023833730, 4.639675617218018, -87.95608520507812, -126.009521484375, 9.773059844970703, -0.1086745485663414, 0.23753724992275238, 1.0971473455429077, -2.1601767539978027, 0.5958255529403687, 
372, 3023842063, 4.573315143585205, -87.95703887939453, -125.93927764892578, 9.813905715942383, -0.10417508333921432, 0.2601681649684906, 1.1304715871810913, -2.151339530944824, 0.5628600120544434, 
373, 3023850396, 4.561595916748047, -87.95943450927734, -125.92334747314453, 9.795499801635742, -0.07706735283136368, 0.2583387494087219, 1.0631316900253296, -2.485912799835205, 0.6077361702919006, 
374, 3023858729, 4.510202407836914, -87.96077728271484, -125.86817169189453, 9.822751998901367, -0.09080340713262558, 0.23035039007663727, 1.0649503469467163, -2.1255204677581787, 0.4935223162174225, 
375, 3023867062, 4.522611618041992, -87.9598159790039, -125.87616729736328, 9.721525192260742, -0.10859367996454239, 0.24232308566570282, 1.0874907970428467, -2.09570574760437, 0.4736455976963043, 
376, 3023875395, 4.460484504699707, -87.96250915527344, -125.81077575683594, 9.884594917297363, -0.12735098600387573, 0.248564675450325, 1.0447661876678467, -2.3207523822784424, 0.5565589070320129, 
377, 3023883728, 4.499000072479248, -87.96260833740234, -125.84529113769531, 9.783754348754883, -0.0954134464263916, 0.22684192657470703, 1.034008264541626, -2.2459585666656494, 0.3723413050174713, 
378, 3023892061, 4.45648717880249, -87.9643325805664, -125.79954528808594, 9.770092964172363, -0.10785523802042007, 0.23535721004009247, 1.0605188608169556, -2.243217945098877, 0.4656539559364319, 
379, 3023900394, 4.463982582092285, -87.96500396728516, -125.80215454101562, 9.896037101745605, -0.10023579746484756, 0.23133891820907593, 1.164871335029602, -2.3220584392547607, 0.5144234895706177, 
380, 3023908727, 4.415335178375244, -87.966064453125, -125.75031280517578, 9.8261137008667, -0.12919794023036957, 0.24235254526138306, 1.0408729314804077, -2.157179832458496, 0.48681139945983887, 
381, 3023917060, 4.459556579589844, -87.96683502197266, -125.78926086425781, 9.732049942016602, -0.10782703757286072, 0.21595273911952972, 1.2069555521011353, -2.314271926879883, 0.35930371284484863, 
382, 3023925393, 4.422658443450928, -87.96856689453125, -125.7487564086914, 9.866631507873535, -0.08136891573667526, 0.2536444365978241, 1.0391054153442383, -2.1700379848480225, 0.43650496006011963, 
383, 3023933726, 4.438958168029785, -87.96760559082031, -125.7601089477539, 9.810917854309082, -0.08617289364337921, 0.26777172088623047, 1.1883084774017334, -2.1296956539154053, 0.46398910880088806, 
384, 3023942059, 4.376300811767578, -87.96924591064453, -125.69314575195312, 9.791300773620605, -0.09920436143875122, 0.20795007050037384, 1.1485295295715332, -2.184330701828003, 0.5504627227783203, 
385, 3023950392, 4.378046989440918, -87.9697265625, -125.69005584716797, 9.757644653320312, -0.10118380934000015, 0.23053446412086487, 1.1350563764572144, -2.279871940612793, 0.5350686311721802, 
386, 3023958725, 4.316049575805664, -87.9711685180664, -125.62451171875, 9.836661338806152, -0.0947360023856163, 0.27773094177246094, 1.0779623985290527, -2.196087598800659, 0.5493869781494141, 
387, 3023967058, 4.309959888458252, -87.97271728515625, -125.6140365600586, 9.814492225646973, -0.08561946451663971, 0.2603307068347931, 1.1054463386535645, -2.4041008949279785, 0.5765636563301086, 
388, 3023975391, 4.234492778778076, -87.97551727294922, -125.53450775146484, 9.817276000976562, -0.12653791904449463, 0.18206176161766052, 1.1377203464508057, -2.3604798316955566, 0.6211836934089661, 
389, 3023983724, 4.22650146484375, -87.97628784179688, -125.52064514160156, 9.835079193115234, -0.10474589467048645, 0.24405895173549652, 1.2977324724197388, -2.319932699203491, 0.5836331844329834, 
390, 3023992057, 4.141595840454102, -87.9784164428711, -125.43064880371094, 9.837174415588379, -0.10895928740501404, 0.23226013779640198, 1.2382818460464478, -2.261096715927124, 0.6566593647003174, 
391, 3024000390, 4.12999963760376, -87.97938537597656, -125.4134521484375, 9.823641777038574, -0.11006034165620804, 0.18757131695747375, 1.2708629369735718, -2.367318868637085, 0.6021522283554077, 
392, 3024008723, 4.048660755157471, -87.98035430908203, -125.32740020751953, 9.796565055847168, -0.09644293040037155, 0.19879941642284393, 1.171838402748108, -2.0946295261383057, 0.6287397742271423, 
393, 3024017056, 4.071439743041992, -87.98054504394531, -125.34492492675781, 9.815747261047363, -0.12332428991794586, 0.23965919017791748, 1.199655532836914, -2.2283360958099365, 0.4436001181602478, 
394, 3024025389, 4.015133857727051, -87.98219299316406, -125.28363800048828, 9.822237968444824, -0.08784136921167374, 0.25412601232528687, 1.209517002105713, -2.2020046710968018, 0.5306629538536072, 
395, 3024033722, 3.984415292739868, -87.98268127441406, -125.24781799316406, 9.78489875793457, -0.08450572937726974, 0.2005828619003296, 1.1780115365982056, -2.259303331375122, 0.671694815158844, 
396, 3024042055, 3.908121109008789, -87.98481750488281, -125.16626739501953, 9.80689811706543, -0.10617563873529434, 0.24925419688224792, 1.2639217376708984, -2.2557177543640137, 0.6216447353363037, 
397, 3024050388, 3.8726954460144043, -87.98481750488281, -125.12552642822266, 9.787026405334473, -0.09187140315771103, 0.23529517650604248, 1.2037793397903442, -2.2213943004608154, 0.6900346279144287, 
398, 3024058721, 3.779850721359253, -87.98578643798828, -125.02837371826172, 9.846837997436523, -0.10209081321954727, 0.24349287152290344, 1.1692514419555664, -2.158050537109375, 0.680941641330719, 
399, 3024067054, 3.751662015914917, -87.98656463623047, -124.99581146240234, 9.787814140319824, -0.09718763828277588, 0.23571714758872986, 1.071507453918457, -2.28102445602417, 0.658196210861206, 
400, 3024075387, 3.6654484272003174, -87.98899841308594, -124.90472412109375, 9.833683967590332, -0.11366008222103119, 0.2324950248003006, 1.2338248491287231, -2.3095333576202393, 0.6666488647460938, 
401, 3024083720, 3.6529831886291504, -87.98812103271484, -124.88670349121094, 9.822768211364746, -0.0984349325299263, 0.22806738317012787, 1.2604892253875732, -2.1294138431549072, 0.5885254740715027, 
402, 3024092053, 3.5865702629089355, -87.98928833007812, -124.81649017333984, 9.793758392333984, -0.10416848212480545, 0.22329998016357422, 1.0749398469924927, -2.133281707763672, 0.5637308955192566, 
403, 3024100386, 3.5762979984283447, -87.98889923095703, -124.80133819580078, 9.800895690917969, -0.1255265176296234, 0.2345706671476364, 1.1618744134902954, -2.1775684356689453, 0.579253077507019, 
404, 3024108719, 3.522091865539551, -87.98967742919922, -124.74217987060547, 9.850053787231445, -0.10358281433582306, 0.19661161303520203, 1.2086974382400513, -2.1019043922424316, 0.518086314201355, 
405, 3024117052, 3.5174779891967773, -87.98831176757812, -124.73267364501953, 9.754476547241211, -0.0786282867193222, 0.22953756153583527, 1.1672790050506592, -2.0470895767211914, 0.5467486381530762, 
406, 3024125385, 3.4433753490448, -87.99055480957031, -124.6546401977539, 9.835739135742188, -0.09842191636562347, 0.2432965338230133, 1.1175106763839722, -2.2903223037719727, 0.6105024814605713, 
407, 3024133718, 3.4291720390319824, -87.99085235595703, -124.63675689697266, 9.82105541229248, -0.10514440387487411, 0.2369333803653717, 1.0066777467727661, -2.2569215297698975, 0.5945191979408264, 
408, 3024142051, 3.357090473175049, -87.9926986694336, -124.56104278564453, 9.76750659942627, -0.10352085530757904, 0.2279183566570282, 1.0992989540100098, -2.272059679031372, 0.5990785956382751, 
409, 3024150384, 3.3563177585601807, -87.9924087524414, -124.55513000488281, 9.79955768585205, -0.104755699634552, 0.21922951936721802, 1.1900246143341064, -2.194730281829834, 0.5418307781219482, 
410, 3024158717, 3.29744291305542, -87.99445343017578, -124.4918212890625, 9.798232078552246, -0.10790849477052689, 0.2064601480960846, 1.1490674018859863, -2.231102705001831, 0.5420100688934326, 
411, 3024167050, 3.304011821746826, -87.99455261230469, -124.49404907226562, 9.77994155883789, -0.10682041198015213, 0.25174781680107117, 1.1133099794387817, -2.261199474334717, 0.5124256014823914, 
412, 3024175383, 3.2539944648742676, -87.9972915649414, -124.43959045410156, 9.794569969177246, -0.07956035435199738, 0.24192093312740326, 1.1492468118667603, -2.3167049884796143, 0.5108374953269958, 
413, 3024183716, 3.2644972801208496, -87.99816131591797, -124.4454574584961, 9.807967185974121, -0.08663284033536911, 0.2470138520002365, 1.1273976564407349, -2.356534957885742, 0.5022823214530945, 
414, 3024192049, 3.1982290744781494, -88.00080871582031, -124.3744125366211, 9.789355278015137, -0.11432018131017685, 0.268863707780838, 1.2064944505691528, -2.3351473808288574, 0.5820450186729431, 
415, 3024200382, 3.206839084625244, -88.00218200683594, -124.37833404541016, 9.788426399230957, -0.09144923835992813, 0.21309944987297058, 1.1598765850067139, -2.4029226303100586, 0.5129891037940979, 
416, 3024208715, 3.112009048461914, -88.005126953125, -124.27884674072266, 9.8018159866333, -0.09863831102848053, 0.21809794008731842, 1.1639492511749268, -2.3311259746551514, 0.7011000514030457, 
417, 3024217048, 3.074786901473999, -88.00747680664062, -124.23703002929688, 9.834854125976562, -0.0967240184545517, 0.2730253338813782, 1.1250669956207275, -2.5033562183380127, 0.7078365683555603, 
418, 3024225381, 2.974855899810791, -88.01140594482422, -124.13194274902344, 9.800848007202148, -0.10112117230892181, 0.2663021683692932, 1.244403600692749, -2.4948008060455322, 0.7321957349777222, 
419, 3024233714, 2.9171297550201416, -88.01406860351562, -124.06877899169922, 9.812744140625, -0.09214851260185242, 0.21302960813045502, 1.2337737083435059, -2.536449670791626, 0.7967180013656616, 
420, 3024242047, 2.8338215351104736, -88.0186996459961, -123.98037719726562, 9.835129737854004, -0.12420552968978882, 0.24727289378643036, 1.2098499536514282, -2.5446720123291016, 0.6628579497337341, 
421, 3024250380, 2.7678096294403076, -88.0203857421875, -123.90921020507812, 9.827847480773926, -0.08556271344423294, 0.23470287024974823, 1.1914076805114746, -2.4244384765625, 0.8228188753128052, 
422, 3024258713, 2.692375421524048, -88.02423858642578, -123.83004760742188, 9.797181129455566, -0.09928473830223083, 0.21036778390407562, 1.0857234001159668, -2.4805848598480225, 0.6207993030548096, 
423, 3024267046, 2.6470143795013428, -88.02543640136719, -123.78057098388672, 9.82893180847168, -0.11444146931171417, 0.2252659648656845, 1.0962252616882324, -2.3885018825531006, 0.7312479615211487, 
424, 3024275379, 2.5780110359191895, -88.02742004394531, -123.70751190185547, 9.778450965881348, -0.10415304452180862, 0.2790520191192627, 1.0976083278656006, -2.239964723587036, 0.582582950592041, 
425, 3024283712, 2.5661699771881104, -88.02682495117188, -123.69133758544922, 9.795918464660645, -0.12256303429603577, 0.23942749202251434, 1.1161786317825317, -2.1973938941955566, 0.5860921144485474, 
426, 3024292045, 2.5176000595092773, -88.02940368652344, -123.63961029052734, 9.81220817565918, -0.11695566028356552, 0.24130551517009735, 0.9980970621109009, -2.2905783653259277, 0.4970826506614685, 
427, 3024300378, 2.557795286178589, -88.02811431884766, -123.67668151855469, 9.783880233764648, -0.12880635261535645, 0.20565956830978394, 0.9557822942733765, -2.111304521560669, 0.36076366901397705, 
428, 3024308711, 2.513442277908325, -88.02900695800781, -123.62938690185547, 9.813066482543945, -0.10492616891860962, 0.22662444412708282, 0.9673855304718018, -2.102928638458252, 0.47044384479522705, 
429, 3024317044, 2.552267551422119, -88.02811431884766, -123.66496276855469, 9.837955474853516, -0.0986611619591713, 0.24500741064548492, 0.9795524477958679, -2.1356379985809326, 0.3683711290359497, 
430, 3024325377, 2.541361093521118, -88.02900695800781, -123.65176391601562, 9.796289443969727, -0.09860417991876602, 0.2351841926574707, 0.9150044918060303, -2.1573331356048584, 0.3345603346824646, 
431, 3024333710, 2.569730043411255, -88.02840423583984, -123.67684936523438, 9.83851432800293, -0.09573151916265488, 0.2057693600654602, 0.9570374488830566, -2.148547649383545, 0.4114542603492737, 
432, 3024342043, 2.5723817348480225, -88.0302963256836, -123.67800903320312, 9.811668395996094, -0.1186581626534462, 0.232680082321167, 0.82929927110672, -2.260891914367676, 0.2805655300617218, 
433, 3024350376, 2.589644432067871, -88.0304946899414, -123.69280242919922, 9.778824806213379, -0.1068621352314949, 0.21885071694850922, 0.8967671394348145, -2.2794365882873535, 0.46155574917793274, 
434, 3024358709, 2.5300419330596924, -88.03228759765625, -123.6308822631836, 9.816339492797852, -0.08653935045003891, 0.21227651834487915, 0.9289641976356506, -2.2672441005706787, 0.5417538285255432, 
435, 3024367042, 2.5290610790252686, -88.03248596191406, -123.62755584716797, 9.81096363067627, -0.12152992188930511, 0.23670147359371185, 0.8309385180473328, -2.2269527912139893, 0.5311751961708069, 
436, 3024375375, 2.489604949951172, -88.0340805053711, -123.58588409423828, 9.75551700592041, -0.11184363067150116, 0.24039699137210846, 0.8854456543922424, -2.208228826522827, 0.4547935426235199, 
437, 3024383708, 2.483741044998169, -88.0331802368164, -123.57767486572266, 9.7900972366333, -0.10578013956546783, 0.21836864948272705, 0.8491246700286865, -2.0990865230560303, 0.5460826754570007, 
438, 3024392041, 2.438753366470337, -88.0340805053711, -123.53089904785156, 9.822086334228516, -0.10701319575309753, 0.20959746837615967, 0.8395193219184875, -2.159766674041748, 0.4750032126903534, 
439, 3024400374, 2.4457268714904785, -88.03108978271484, -123.53632354736328, 9.820602416992188, -0.09696466475725174, 0.2320631444454193, 0.7632657885551453, -1.8771650791168213, 0.48109936714172363, 
440, 3024408707, 2.4197371006011963, -88.0313949584961, -123.50836181640625, 9.807291030883789, -0.1214277371764183, 0.23633255064487457, 0.8740218281745911, -2.0794403553009033, 0.39580395817756653, 
441, 3024417040, 2.4690072536468506, -88.02999877929688, -123.5549545288086, 9.833820343017578, -0.10622036457061768, 0.27554741501808167, 0.9228937029838562, -2.1035945415496826, 0.32277777791023254, 
442, 3024425373, 2.4667656421661377, -88.03019714355469, -123.55111694335938, 9.819080352783203, -0.1286354809999466, 0.27340787649154663, 0.8200013041496277, -2.04870343208313, 0.2943972051143646, 
443, 3024433706, 2.5251941680908203, -88.02811431884766, -123.6075210571289, 9.811829566955566, -0.121244415640831, 0.2336398959159851, 0.7957190275192261, -1.9586693048477173, 0.2737521529197693, 
444, 3024442039, 2.498168706893921, -88.02691650390625, -123.57861328125, 9.814810752868652, -0.10948082059621811, 0.23882441222667694, 0.8703843355178833, -1.910668134689331, 0.393780380487442, 
445, 3024450372, 2.4968950748443604, -88.0255355834961, -123.574462890625, 9.85285472869873, -0.11655528843402863, 0.21314848959445953, 0.9080117344856262, -2.0521867275238037, 0.5271281003952026, 
446, 3024458705, 2.4540672302246094, -88.02702331542969, -123.5289306640625, 9.806411743164062, -0.11418385058641434, 0.2079973667860031, 0.9099584817886353, -2.1636598110198975, 0.47254419326782227, 
447, 3024467038, 2.4597156047821045, -88.02742004394531, -123.53103637695312, 9.840819358825684, -0.09670177102088928, 0.23795785009860992, 1.0072412490844727, -2.2848920822143555, 0.5123744010925293, 
448, 3024475371, 2.386556386947632, -88.02851104736328, -123.45531463623047, 9.789643287658691, -0.09843213111162186, 0.20137043297290802, 0.9366484880447388, -2.1575636863708496, 0.599744439125061, 
449, 3024483704, 2.343832492828369, -88.02910614013672, -123.40760040283203, 9.794781684875488, -0.12459563463926315, 0.25062745809555054, 1.1490674018859863, -2.2718803882598877, 0.7152391672134399, 
450, 3024492037, 2.253061056137085, -88.03179168701172, -123.31317901611328, 9.84006404876709, -0.141316220164299, 0.24227353930473328, 1.1004002094268799, -2.4125537872314453, 0.6879855990409851, 
451, 3024500370, 2.214308500289917, -88.03218841552734, -123.26923370361328, 9.803143501281738, -0.11914078891277313, 0.25581979751586914, 1.1790361404418945, -2.240861415863037, 0.6994351148605347, 
452, 3024508703, 2.145127773284912, -88.03577423095703, -123.19715118408203, 9.799102783203125, -0.1063435971736908, 0.24100004136562347, 0.9792706966400146, -2.471850633621216, 0.5970037579536438, 
453, 3024517036, 2.1600451469421387, -88.03706359863281, -123.20758819580078, 9.812176704406738, -0.12087370455265045, 0.22850412130355835, 1.114385724067688, -2.3864526748657227, 0.4810737669467926, 
454, 3024525369, 2.1018800735473633, -88.03936004638672, -123.14540100097656, 9.794412612915039, -0.09550558030605316, 0.24743123352527618, 1.1153335571289062, -2.3215973377227783, 0.548618495464325, 
455, 3024533702, 2.108051300048828, -88.04095458984375, -123.14681243896484, 9.801352500915527, -0.12206805497407913, 0.2727874219417572, 1.1273976564407349, -2.3885531425476074, 0.5177277326583862, 
456, 3024542035, 2.0715110301971436, -88.04566192626953, -123.10514831542969, 9.834633827209473, -0.11760525405406952, 0.2696641683578491, 1.2480409145355225, -2.6162636280059814, 0.47641193866729736, 
457, 3024550368, 2.1069555282592773, -88.0518798828125, -123.13327026367188, 9.852031707763672, -0.11194109171628952, 0.23182401061058044, 1.4598705768585205, -2.9776294231414795, 0.4298197031021118, 
458, 3024558701, 2.09071946144104, -88.06134033203125, -123.10862731933594, 9.842714309692383, -0.10993053764104843, 0.24013328552246094, 1.6315627098083496, -3.1790084838867188, 0.4270533621311188, 
459, 3024567034, 2.189483404159546, -88.0674057006836, -123.19905853271484, 9.853832244873047, -0.12033607065677643, 0.1996232271194458, 1.6049240827560425, -3.002552032470703, 0.18148967623710632, 
460, 3024575367, 2.2734458446502686, -88.07299041748047, -123.274658203125, 9.821965217590332, -0.14721068739891052, 0.20138871669769287, 1.6065633296966553, -2.6843204498291016, 0.004930740222334862, 
461, 3024583700, 2.4042818546295166, -88.07420349121094, -123.39772033691406, 9.81448745727539, -0.07850473374128342, 0.2277630716562271, 1.4883792400360107, -2.3570477962493896, 0.025703882798552513, 
462, 3024592033, 2.4509568214416504, -88.07725524902344, -123.4363021850586, 9.810585021972656, -0.08648967742919922, 0.2103411704301834, 1.6350462436676025, -2.4591970443725586, 0.14936941862106323, 
463, 3024600366, 2.5512449741363525, -88.07949829101562, -123.52779388427734, 9.855677604675293, -0.09639494866132736, 0.24368177354335785, 1.6245701313018799, -2.5097851753234863, 0.16281689703464508, 
464, 3024608699, 2.583832263946533, -88.07919311523438, -123.55108642578125, 9.867444038391113, -0.09568412601947784, 0.224744513630867, 1.7288457155227661, -1.9925826787948608, 0.1887897253036499, 
465, 3024617032, 2.70076584815979, -88.07603454589844, -123.66011047363281, 9.827153205871582, -0.09046924859285355, 0.19719842076301575, 1.4981893301010132, -1.826960802078247, 0.05995011329650879, 
466, 3024625365, 2.7734861373901367, -88.07318878173828, -123.72586059570312, 9.855974197387695, -0.08968400210142136, 0.25965219736099243, 1.50185227394104, -1.8059570789337158, 0.013152909465134144, 
467, 3024633698, 2.888340711593628, -88.068115234375, -123.8332290649414, 9.818645477294922, -0.08389922976493835, 0.22390630841255188, 1.5020315647125244, -1.6497104167938232, 0.05633850768208504, 
468, 3024642031, 2.9160525798797607, -88.06497955322266, -123.85437774658203, 9.790960311889648, -0.09648533910512924, 0.25206154584884644, 1.422499418258667, -1.6719177961349487, 0.18446092307567596, 
469, 3024650364, 3.011245012283325, -88.06073760986328, -123.94293975830078, 9.792798042297363, -0.10013509541749954, 0.2411888986825943, 1.3714500665664673, -1.7356204986572266, 0.13305313885211945, 
470, 3024658697, 3.0404508113861084, -88.05831909179688, -123.96630859375, 9.815519332885742, -0.08266529440879822, 0.2523784041404724, 1.3007547855377197, -1.7498623132705688, 0.1774938404560089, 
471, 3024667030, 3.1094443798065186, -88.05358123779297, -124.02877807617188, 9.79134750366211, -0.08377648890018463, 0.2559298872947693, 1.3777254819869995, -1.685544729232788, 0.23543323576450348, 
472, 3024675363, 3.133392572402954, -88.05298614501953, -124.04716491699219, 9.783974647521973, -0.09037528932094574, 0.2522183060646057, 1.2704277038574219, -1.9569787979125977, 0.20830775797367096, 
473, 3024683696, 3.1887941360473633, -88.0501708984375, -124.09760284423828, 9.78642463684082, -0.10402347892522812, 0.23639211058616638, 1.184210181236267, -1.9262416362762451, 0.2971891462802887, 
474, 3024692029, 3.1804544925689697, -88.05087280273438, -124.08448791503906, 9.797459602355957, -0.09076593816280365, 0.2307984083890915, 1.2050857543945312, -2.115582227706909, 0.3461124002933502, 
475, 3024700362, 3.187222957611084, -88.04916381835938, -124.08618927001953, 9.774456024169922, -0.08768320083618164, 0.24641160666942596, 1.175552487373352, -2.0075411796569824, 0.49923425912857056, 
476, 3024708695, 3.1067006587982178, -88.04906463623047, -124.00102233886719, 9.7377290725708, -0.08064558357000351, 0.2224820852279663, 1.1684061288833618, -2.037151336669922, 0.6383451223373413, 
477, 3024717028, 3.087251901626587, -88.04875946044922, -123.97696685791016, 9.787181854248047, -0.08237060904502869, 0.25116732716560364, 1.1160507202148438, -2.140684127807617, 0.6125772595405579, 
478, 3024725361, 3.019371747970581, -88.0501708984375, -123.905517578125, 9.784299850463867, -0.08357623964548111, 0.2568139433860779, 1.0848524570465088, -2.2776691913604736, 0.5959024429321289, 
479, 3024733694, 3.020805597305298, -88.05278015136719, -123.9034194946289, 9.75772476196289, -0.1159394159913063, 0.2639617919921875, 0.985725462436676, -2.5233352184295654, 0.5431882739067078, 
480, 3024742027, 2.9861934185028076, -88.05630493164062, -123.86616516113281, 9.774045944213867, -0.10668006539344788, 0.23187723755836487, 0.94200199842453, -2.4815328121185303, 0.4680617153644562, 
481, 3024750360, 3.059025764465332, -88.05791473388672, -123.93668365478516, 9.771526336669922, -0.12268725037574768, 0.24683070182800293, 0.8719725608825684, -2.437681198120117, 0.24224664270877838, 
482, 3024758693, 3.084341526031494, -88.0616455078125, -123.96099853515625, 9.776307106018066, -0.08520439267158508, 0.2567831873893738, 0.7443881034851074, -2.534451961517334, 0.2197573482990265, 
483, 3024767026, 3.11993408203125, -88.06417083740234, -123.99528503417969, 9.762450218200684, -0.09095355868339539, 0.24822834134101868, 0.7367294430732727, -2.532966136932373, 0.39716148376464844, 
484, 3024775359, 3.1111137866973877, -88.06903076171875, -123.98567962646484, 9.77165699005127, -0.08500320464372635, 0.259277880191803, 0.6988715529441833, -2.6160073280334473, 0.3632482588291168, 
485, 3024783692, 3.118778944015503, -88.07481384277344, -123.99163818359375, 9.751059532165527, -0.07565205544233322, 0.278123140335083, 0.7736139297485352, -2.91994571685791, 0.5316618084907532, 
486, 3024792025, 3.053488254547119, -88.08317565917969, -123.92643737792969, 9.80993366241455, -0.10711988061666489, 0.26233068108558655, 0.6243342161178589, -3.0381813049316406, 0.6111940741539001, 
487, 3024800358, 3.034111261367798, -88.09053802490234, -123.90589141845703, 9.769404411315918, -0.11755046993494034, 0.20832885801792145, 0.7020990252494812, -3.1031136512756348, 0.6469259858131409, 
488, 3024808691, 2.995375156402588, -88.09978485107422, -123.86595916748047, 9.850492477416992, -0.0979897528886795, 0.21904243528842926, 0.7887263298034668, -3.1646645069122314, 0.5140649080276489, 
489, 3024817024, 3.010190486907959, -88.10391235351562, -123.87908935546875, 9.87916088104248, -0.10309434682130814, 0.21568678319454193, 0.7981780171394348, -2.7458202838897705, 0.4943675398826599, 
490, 3024825357, 3.0097951889038086, -88.10700225830078, -123.87648010253906, 9.914223670959473, -0.10121598094701767, 0.18598061800003052, 0.8690270185470581, -2.401386022567749, 0.3249550461769104, 
491, 3024833690, 3.0227746963500977, -88.10298156738281, -123.88688659667969, 9.90738582611084, -0.05985325947403908, 0.17370174825191498, 0.8880839347839355, -1.756880283355713, 0.4519503712654114, 
492, 3024842023, 2.9589571952819824, -88.0988540649414, -123.82018280029297, 9.850939750671387, -0.06940848380327225, 0.19595439732074738, 0.9893625974655151, -1.563826084136963, 0.5368359684944153, 
493, 3024850356, 2.855926513671875, -88.09361267089844, -123.714111328125, 9.868793487548828, -0.040826983749866486, 0.22747449576854706, 0.9273248910903931, -1.5822937488555908, 0.9086776971817017, 
494, 3024858689, 2.6332881450653076, -88.0904312133789, -123.48723602294922, 9.8563871383667, -0.09840764105319977, 0.22536349296569824, 1.0556522607803345, -1.5754292011260986, 1.1798555850982666, 
495, 3024867022, 2.4044909477233887, -88.08521270751953, -123.25381469726562, 9.797646522521973, -0.08304104954004288, 0.23530295491218567, 1.1316752433776855, -1.560598611831665, 1.4240875244140625, 
496, 3024875355, 2.1060760021209717, -88.08265686035156, -122.95117950439453, 9.811125755310059, -0.09527059644460678, 0.2812323570251465, 1.1447643041610718, -1.7553179264068604, 1.5028767585754395, 
497, 3024883688, 1.8667562007904053, -88.08030700683594, -122.70660400390625, 9.805006980895996, -0.10199650377035141, 0.25018665194511414, 1.163283348083496, -1.8763707876205444, 1.4877899885177612, 
498, 3024892021, 1.5920188426971436, -88.07991027832031, -122.42691802978516, 9.794966697692871, -0.11108418554067612, 0.2662481367588043, 1.1856188774108887, -1.9800829887390137, 1.4202196598052979, 
499, 3024900354, 1.373453974723816, -88.08020782470703, -122.20281219482422, 9.772587776184082, -0.11407051235437393, 0.25106722116470337, 1.2485018968582153, -2.2545905113220215, 1.420424461364746, 
500, 3024908687, 1.1279996633529663, -88.0832748413086, -121.95186614990234, 9.801535606384277, -0.12704117596149445, 0.27206751704216003, 1.2714775800704956, -2.4101715087890625, 1.3146121501922607, 
501, 3024917020, 0.9959393739700317, -88.08592987060547, -121.81462097167969, 9.755844116210938, -0.12019018828868866, 0.25713008642196655, 1.2045477628707886, -2.550306797027588, 1.0758874416351318, 
502, 3024925353, 0.8478934168815613, -88.09186553955078, -121.66083526611328, 9.77192211151123, -0.13154087960720062, 0.23800213634967804, 1.2878966331481934, -2.72033429145813, 0.9263772964477539, 
503, 3024933686, 0.8005837202072144, -88.09771728515625, -121.60751342773438, 9.800901412963867, -0.14682990312576294, 0.24935051798820496, 1.2798537015914917, -2.9114162921905518, 0.7401617169380188, 
504, 3024942019, 0.7501147389411926, -88.10514831542969, -121.55150604248047, 9.79113483428955, -0.12884266674518585, 0.2184181809425354, 1.3268814086914062, -2.9949700832366943, 0.5382959842681885, 
505, 3024950352, 0.7929282784461975, -88.11145782470703, -121.58881378173828, 9.80292797088623, -0.11059068143367767, 0.28245261311531067, 1.2163304090499878, -2.971379280090332, 0.3805122673511505, 
506, 3024958685, 0.835697591304779, -88.11747741699219, -121.62747192382812, 9.83703899383545, -0.10444250702857971, 0.22740378975868225, 1.118868112564087, -2.7977399826049805, 0.15943579375743866, 
507, 3024967018, 0.9738019704818726, -88.12247467041016, -121.76099395751953, 9.80116081237793, -0.10864751040935516, 0.22609636187553406, 1.1534217596054077, -2.866591453552246, 0.004981968551874161, 
508, 3024975351, 1.0144805908203125, -88.12895202636719, -121.79619598388672, 9.899620056152344, -0.10018852353096008, 0.21551531553268433, 1.2798538208007812, -2.8193588256835938, 0.17887701094150543, 
509, 3024983684, 1.110931634902954, -88.13272094726562, -121.88680267333984, 9.810311317443848, -0.09833961725234985, 0.2121351808309555, 1.2683016061782837, -2.6851656436920166, 0.17198677361011505, 
510, 3024992017, 1.0954819917678833, -88.13922882080078, -121.86415100097656, 9.848018646240234, -0.1270834356546402, 0.26492226123809814, 1.4753928184509277, -2.8272480964660645, 0.40502506494522095, 
511, 3025000350, 1.1921241283416748, -88.14617919921875, -121.9520492553711, 9.853153228759766, -0.1252947300672531, 0.20303429663181305, 1.661941409111023, -3.104496955871582, 0.19701190292835236, 
512, 3025008683, 1.2060672044754028, -88.15189361572266, -121.95536804199219, 9.907508850097656, -0.08143564313650131, 0.20044611394405365, 1.8491555452346802, -2.6854732036590576, 0.30313166975975037, 
513, 3025017016, 1.1830519437789917, -88.15283966064453, -121.92041015625, 9.875144958496094, -0.04560930281877518, 0.13128626346588135, 2.0328867435455322, -2.3544607162475586, 0.6561983823776245, 
514, 3025025349, 0.9246422052383423, -88.15242004394531, -121.64781188964844, 9.900093078613281, -0.008581966161727905, 0.15460734069347382, 2.3215079307556152, -2.0132534503936768, 1.358028531074524, 
515, 3025033682, 0.5734631419181824, -88.14691925048828, -121.2783432006836, 9.96384334564209, -0.06326082348823547, 0.1351543366909027, 2.718092918395996, -1.5249946117401123, 1.9379345178604126, 
516, 3025042015, 0.11560367792844772, -88.1358642578125, -120.79983520507812, 9.990288734436035, -0.13621863722801208, 0.14272356033325195, 3.0623481273651123, -0.6978598237037659, 2.1574482917785645, 
517, 3025050348, -0.1170375719666481, -88.11145782470703, -120.54658508300781, 10.131088256835938, -0.20582880079746246, -0.02504497580230236, 3.0648586750030518, 0.6533295512199402, 1.5133788585662842, 
518, 3025058681, -0.140348881483078, -88.07157135009766, -120.50572204589844, 9.928755760192871, -0.18492668867111206, 0.12152301520109177, 2.6940665245056152, 2.760509729385376, 0.47963932156562805, 
519, 3025067014, 0.10069189220666885, -88.02444458007812, -120.7325439453125, 9.881217956542969, -0.15607976913452148, 0.18919837474822998, 2.268691062927246, 3.453221321105957, -0.407496839761734, 
520, 3025075347, 0.39501655101776123, -87.97590637207031, -121.01417541503906, 9.859538078308105, -0.16342316567897797, 0.21679352223873138, 2.174712657928467, 3.743969202041626, -0.895678699016571, 
521, 3025083680, 0.850382924079895, -87.92547607421875, -121.45716094970703, 9.910218238830566, -0.19063490629196167, 0.23074981570243835, 2.0802218914031982, 3.805724620819092, -1.4469482898712158, 
522, 3025092013, 1.268555998802185, -87.87735748291016, -121.86360931396484, 9.944685935974121, -0.1292736679315567, 0.2698626220226288, 2.0743560791015625, 3.658135414123535, -1.5830110311508179, 
523, 3025100346, 1.6562618017196655, -87.83074951171875, -122.23411560058594, 9.915634155273438, -0.47049495577812195, 0.08170120418071747, 2.6190943717956543, 3.3773269653320312, -1.2912650108337402, 
524, 3025108679, 1.7910212278366089, -87.79593658447266, -122.33881378173828, 10.469456672668457, 0.23263929784297943, 0.2321261316537857, 4.301027297973633, 2.0134711265563965, -0.29225844144821167, 
525, 3025117012, 1.3074907064437866, -87.71424102783203, -121.83172607421875, 11.156257629394531, 0.1481492817401886, -0.12312275171279907, 3.334012985229492, 7.666455268859863, 2.6323108673095703, 
526, 3025125345, -1.5558847188949585, -87.63702392578125, -118.91747283935547, 13.777514457702637, -0.6905627846717834, -0.3306967318058014, 6.4438652992248535, 7.171257972717285, 14.498649597167969, 
527, 3025133678, -4.75023078918457, -87.39443969726562, -115.66879272460938, 18.21942138671875, 0.8644013404846191, -1.423329472541809, 6.768477916717529, 25.889726638793945, 18.97687530517578, 
528, 3025142011, -4.830719947814941, -87.00899505615234, -115.59529876708984, 13.507600784301758, -0.08473774045705795, -0.48659560084342957, -0.260574072599411, 44.03170394897461, 4.600337982177734, 
529, 3025150344, -5.122572898864746, -86.61829376220703, -115.28182983398438, 10.498692512512207, -0.31677383184432983, 0.36288344860076904, 3.066580057144165, 44.347450256347656, 6.6712260246276855, 
530, 3025158677, -5.029007434844971, -86.2214584350586, -115.36605072021484, 11.629643440246582, -0.18180951476097107, 0.20249508321285248, 1.7515687942504883, 45.44712829589844, 3.8956382274627686, 
531, 3025167010, -4.6302971839904785, -85.80091857910156, -115.75325012207031, 11.828150749206543, -0.3801940679550171, 0.03529220446944237, 2.052818536758423, 48.353641510009766, 1.546987771987915, 
532, 3025175343, -4.215231895446777, -85.35105895996094, -116.1572036743164, 11.616950035095215, -0.10151856392621994, 0.15556597709655762, 2.097900390625, 52.06667709350586, 0.7487186789512634, 
533, 3025183676, -3.7138326168060303, -84.87374877929688, -116.65128326416016, 11.400899887084961, -0.3202892243862152, 0.2782245874404907, 1.6588464975357056, 55.26933288574219, -0.5596469044685364, 
534, 3025192009, -3.205799102783203, -84.37820434570312, -117.1496810913086, 11.118278503417969, -0.4038369059562683, 0.4234578311443329, 2.0535635948181152, 57.66305923461914, -1.6865488290786743, 
535, 3025200342, -2.689887523651123, -83.86180114746094, -117.65129089355469, 11.241028785705566, -0.18704180419445038, 0.42410263419151306, 2.593615770339966, 59.988685607910156, -2.4523913860321045, 
536, 3025208675, -2.246039390563965, -83.32191467285156, -118.07958984375, 11.264923095703125, -0.029820546507835388, 0.4844107925891876, 2.809980869293213, 62.939109802246094, -2.6268255710601807, 
537, 3025217008, -1.8655081987380981, -82.75717163085938, -118.44302368164062, 11.039196014404297, -0.17170123755931854, 0.5569934844970703, 2.9372594356536865, 65.69722747802734, -2.3335165977478027, 
538, 3025225341, -1.5640798807144165, -82.17311096191406, -118.72359466552734, 10.84798526763916, -0.33568158745765686, 0.6338634490966797, 3.4381234645843506, 68.15052795410156, -1.9967403411865234, 
539, 3025233674, -1.238525629043579, -81.5710220336914, -119.02259063720703, 10.355501174926758, -0.4093233048915863, 0.8073437213897705, 4.1134209632873535, 70.13449096679688, -2.7872507572174072, 
540, 3025242007, -0.9318399429321289, -80.96443176269531, -119.30023956298828, 9.769075393676758, -0.1909966617822647, 1.0522788763046265, 4.488978385925293, 70.84427642822266, -3.3653926849365234, 
541, 3025250340, -0.6511521935462952, -80.3599624633789, -119.55155181884766, 9.345848083496094, -0.21926818788051605, 1.165268898010254, 4.5032453536987305, 70.37104034423828, -3.372307538986206, 
542, 3025258673, -0.3980901539325714, -79.76221466064453, -119.7728500366211, 8.982904434204102, -0.24602998793125153, 1.3315905332565308, 4.848193645477295, 69.7480697631836, -3.607421636581421, 
543, 3025267006, -0.14656279981136322, -79.17736053466797, -119.98981475830078, 8.607840538024902, -0.18652336299419403, 1.4995911121368408, 5.16212272644043, 67.9749984741211, -3.907416820526123, 
544, 3025275339, 0.08214693516492844, -78.61038970947266, -120.18440246582031, 8.396489143371582, -0.13806258141994476, 1.6548610925674438, 5.172083854675293, 66.01009368896484, -4.139710903167725, 
545, 3025283672, 0.30884090065956116, -78.05925750732422, -120.37700653076172, 8.43464469909668, -0.2154712677001953, 1.719102382659912, 5.146033763885498, 63.89190673828125, -4.380331993103027, 
546, 3025292005, 0.516845166683197, -77.52474975585938, -120.54672241210938, 8.974343299865723, -0.22897864878177643, 1.7129414081573486, 5.716335773468018, 62.08613204956055, -4.447082042694092, 
547, 3025300338, 0.7150788903236389, -76.9834213256836, -120.70194244384766, 8.58829116821289, -0.05252574756741524, 1.9179986715316772, 6.194786548614502, 62.68606185913086, -4.2890167236328125, 
548, 3025308671, 0.8776304125785828, -76.47175598144531, -120.82133483886719, 8.175084114074707, -0.25901737809181213, 2.050821542739868, 6.231258869171143, 59.310447692871094, -3.8176348209381104, 
549, 3025317004, 1.0397220849990845, -75.97048950195312, -120.93594360351562, 8.827579498291016, -0.027180640026926994, 2.100800037384033, 6.6638336181640625, 57.867774963378906, -3.7640750408172607, 
550, 3025325337, 1.213927149772644, -75.48127746582031, -121.06742858886719, 8.765837669372559, -0.3915124237537384, 2.1849911212921143, 6.2754926681518555, 56.58361053466797, -4.7205634117126465, 
551, 3025333670, 1.4218780994415283, -75.00247192382812, -121.23173522949219, 8.509236335754395, -0.2598814368247986, 2.3419971466064453, 6.459555625915527, 55.10591125488281, -5.8262553215026855, 
552, 3025342003, 1.6106688976287842, -74.54484558105469, -121.37834930419922, 8.050735473632812, 0.04144297540187836, 2.5117251873016357, 6.349259853363037, 52.73091506958008, -5.745108127593994, 
553, 3025350336, 1.760195255279541, -74.10684204101562, -121.48783874511719, 8.168350219726562, 0.33964234590530396, 2.539520502090454, 5.867376804351807, 50.20674514770508, -4.576812744140625, 
554, 3025358669, 1.8527259826660156, -73.68730926513672, -121.54644012451172, 7.9661641120910645, 0.514399528503418, 2.708731174468994, 5.0051984786987305, 48.21714401245117, -3.2116475105285645, 
555, 3025367002, 1.8786253929138184, -73.29600524902344, -121.54078674316406, 7.5953474044799805, 0.5616690516471863, 2.7769968509674072, 4.3369975090026855, 44.712711334228516, -0.8186067342758179, 
556, 3025375335, 1.824728012084961, -72.92708587646484, -121.45573425292969, 8.19034481048584, 0.6153498291969299, 2.7516415119171143, 3.9545750617980957, 42.30275344848633, 1.8629132509231567, 
557, 3025383668, 1.7375617027282715, -72.56591033935547, -121.34242248535156, 8.35619831085205, 0.309784859418869, 2.7902698516845703, 3.1068193912506104, 41.21578598022461, 3.20271897315979, 
558, 3025392001, 1.6222929954528809, -72.22152709960938, -121.20293426513672, 8.17283821105957, 0.20774328708648682, 2.9830715656280518, 2.789022445678711, 39.40938949584961, 4.182438850402832, 
559, 3025400334, 1.5063644647598267, -71.89573669433594, -121.06651306152344, 7.822760105133057, 0.12865790724754333, 3.08996319770813, 2.2418503761291504, 36.99100875854492, 4.491423606872559, 
560, 3025408667, 1.360357642173767, -71.59747314453125, -120.90196990966797, 7.785210609436035, 0.35371899604797363, 3.1955745220184326, 1.8954936265945435, 33.88603973388672, 5.6288743019104, 
561, 3025417000, 1.216541051864624, -71.3231430053711, -120.74623107910156, 7.506248474121094, 0.12737029790878296, 3.2992167472839355, 1.0343165397644043, 30.81972885131836, 5.716679573059082, 
562, 3025425333, 1.0682783126831055, -71.08370208740234, -120.5875244140625, 7.210011959075928, -0.16130706667900085, 3.4235987663269043, 0.9124436974525452, 26.7949275970459, 5.908170700073242, 
563, 3025433666, 0.9390268921852112, -70.87689971923828, -120.44865417480469, 7.082906723022461, -0.17084555327892303, 3.477969169616699, 0.8182599544525146, 22.683809280395508, 5.512172698974609, 
564, 3025441999, 0.8230894207954407, -70.71138000488281, -120.33135223388672, 6.637899875640869, -0.16840574145317078, 3.6239101886749268, 0.04063699021935463, 17.86983871459961, 4.66411018371582, 
565, 3025450332, 0.7281293869018555, -70.59525299072266, -120.23892211914062, 5.933043956756592, -0.20109471678733826, 3.8517537117004395, -0.3526568114757538, 11.752464294433594, 4.005234241485596, 
566, 3025458665, 0.6430633664131165, -70.54247283935547, -120.1596908569336, 5.794729232788086, -0.3088025152683258, 3.8857815265655518, -0.5641791820526123, 4.296416759490967, 3.4289391040802, 
567, 3025466998, 0.5794401168823242, -70.54523468017578, -120.098388671875, 6.1840081214904785, -0.1691296100616455, 3.716778039932251, -0.1224360540509224, -2.5325562953948975, 2.972083568572998, 
568, 3025475331, 0.49475136399269104, -70.59454345703125, -120.0153579711914, 6.756748676300049, 0.3709929287433624, 3.549710273742676, -0.09139159321784973, -7.969485282897949, 3.710516929626465, 
569, 3025483664, 0.3755534291267395, -70.6751480102539, -119.89959716796875, 7.341794490814209, 0.4449004530906677, 3.437403917312622, -0.6257046461105347, -11.86377239227295, 5.196194171905518, 
570, 3025491997, 0.2134740799665451, -70.78228759765625, -119.74214935302734, 7.698505401611328, 0.11188481748104095, 3.335216999053955, -0.9461643695831299, -14.920857429504395, 6.6471123695373535, 
571, 3025500330, 0.04568126052618027, -70.90853881835938, -119.57778930664062, 8.060948371887207, -0.1563573181629181, 3.3069422245025635, -0.9237776398658752, -17.367839813232422, 7.025461673736572, 
572, 3025508663, -0.12917421758174896, -71.05005645751953, -119.4046859741211, 8.311787605285645, -0.09296924620866776, 3.220459222793579, -0.6857188940048218, -19.082866668701172, 7.104045391082764, 
573, 3025516996, -0.3133620619773865, -71.2015609741211, -119.2235107421875, 8.496125221252441, 0.09026549756526947, 3.1982975006103516, -0.9544892907142639, -20.435710906982422, 7.480807304382324, 
574, 3025525329, -0.5177428126335144, -71.36531066894531, -119.02533721923828, 8.454190254211426, 0.07349065691232681, 3.1265931129455566, -1.340009331703186, -21.81209373474121, 7.835744380950928, 
575, 3025533662, -0.742622971534729, -71.53956604003906, -118.80723571777344, 8.54506778717041, 0.03754813224077225, 3.136679172515869, -1.5969972610473633, -23.225439071655273, 8.613086700439453, 
576, 3025541995, -0.9960124492645264, -71.72618865966797, -118.56492614746094, 8.393964767456055, 0.15788881480693817, 3.1368207931518555, -2.1448349952697754, -24.642446517944336, 9.16958236694336, 
577, 3025550328, -1.284472107887268, -71.9242172241211, -118.28848266601562, 8.70803165435791, 0.23245546221733093, 3.0222327709198, -2.517086982727051, -26.19812774658203, 10.391305923461914, 
578, 3025558661, -1.629138708114624, -72.1292953491211, -117.95957946777344, 9.076135635375977, 0.1392432153224945, 2.9095680713653564, -3.160235643386841, -27.014129638671875, 11.894761085510254, 
579, 3025566994, -2.0101070404052734, -72.33037567138672, -117.59449768066406, 9.50539779663086, -0.10178295522928238, 2.817918062210083, -3.4221413135528564, -26.767791748046875, 13.116432189941406, 
580, 3025575327, -2.4177026748657227, -72.5262222290039, -117.20238494873047, 9.785770416259766, -0.18909752368927002, 2.72965145111084, -3.4045956134796143, -26.1359920501709, 13.636453628540039, 
581, 3025583660, -2.821633815765381, -72.7067642211914, -116.81302642822266, 10.279064178466797, -0.37526604533195496, 2.6559183597564697, -3.305263042449951, -24.511045455932617, 13.473698616027832, 
582, 3025591993, -3.2121105194091797, -72.8704833984375, -116.43826293945312, 10.348396301269531, -0.601491391658783, 2.6223397254943848, -3.2347469329833984, -22.43534278869629, 12.607040405273438, 
583, 3025600326, -3.5451436042785645, -73.01839447021484, -116.11962127685547, 10.16687297821045, -0.7974839210510254, 2.656611442565918, -2.8291189670562744, -20.614702224731445, 10.667781829833984, 
584, 3025608659, -3.827709674835205, -73.15984344482422, -115.85059356689453, 9.785595893859863, -0.8858777284622192, 2.6965456008911133, -2.3657572269439697, -19.6466121673584, 8.628556251525879, 
585, 3025616992, -4.035120010375977, -73.2996826171875, -115.65557098388672, 9.393146514892578, -0.8783215284347534, 2.7224059104919434, -1.9021906852722168, -19.435577392578125, 6.106090068817139, 
586, 3025625325, -4.199216842651367, -73.4466323852539, -115.50379943847656, 8.871228218078613, -0.6774704456329346, 2.7485365867614746, -1.5906447172164917, -20.0623836517334, 4.275670528411865, 
587, 3025633658, -4.3255839347839355, -73.60421752929688, -115.38884735107422, 8.579865455627441, -0.487377405166626, 2.8033981323242188, -1.3638561964035034, -21.37713623046875, 3.0124785900115967, 
588, 3025641991, -4.470556735992432, -73.77710723876953, -115.25473022460938, 8.51898193359375, -0.19656197726726532, 2.783987045288086, -1.2899079322814941, -23.14006233215332, 3.2601938247680664, 
589, 3025650324, -4.637798309326172, -73.96107482910156, -115.09818267822266, 8.742341995239258, -0.04208630323410034, 2.6464147567749023, -1.4468207359313965, -24.6478214263916, 3.9691710472106934, 
590, 3025658657, -4.855289936065674, -74.1517333984375, -114.89319610595703, 9.037561416625977, -0.00795084610581398, 2.7002570629119873, -1.7903591394424438, -25.469629287719727, 5.18410587310791, 
591, 3025666990, -5.102379322052002, -74.3471450805664, -114.65848541259766, 9.038536071777344, -0.12451395392417908, 2.6062185764312744, -1.965279221534729, -26.25238037109375, 6.099816799163818, 
592, 3025675323, -5.38274621963501, -74.54609680175781, -114.39251708984375, 9.224116325378418, -0.24235841631889343, 2.527956008911133, -2.2440388202667236, -26.6660213470459, 6.686894416809082, 
593, 3025683656, -5.671625137329102, -74.74890899658203, -114.11945343017578, 9.054438591003418, -0.25490108132362366, 2.5553231239318848, -2.4922664165496826, -27.28862953186035, 6.808792591094971, 
594, 3025691989, -5.982923984527588, -74.95930480957031, -113.82465362548828, 8.803874969482422, -0.28510311245918274, 2.6026816368103027, -2.551359176635742, -28.172555923461914, 6.9761576652526855, 
595, 3025700322, -6.320874214172363, -75.18440246582031, -113.5035171508789, 8.380252838134766, -0.26894259452819824, 2.5552027225494385, -2.742159843444824, -30.15066909790039, 7.493847370147705, 
596, 3025708655, -6.700450897216797, -75.42930603027344, -113.14014434814453, 8.292572021484375, -0.33832108974456787, 2.5504729747772217, -2.722795248031616, -32.566837310791016, 8.002955436706543, 
597, 3025716988, -7.096695423126221, -75.69092559814453, -112.75845336914062, 8.087446212768555, -0.4979444444179535, 2.4550111293792725, -2.610657215118408, -34.77203369140625, 8.085694313049316, 
598, 3025725321, -7.500013828277588, -75.97337341308594, -112.3689956665039, 7.764865875244141, -0.5618144273757935, 2.4299824237823486, -2.4387600421905518, -37.18853759765625, 7.388730525970459, 
599, 3025733654, -7.9242472648620605, -76.28488159179688, -111.95823669433594, 7.3931074142456055, -0.3757331669330597, 2.482311964035034, -2.407254934310913, -40.7465934753418, 7.041529655456543, 
600, 3025741987, -8.384604454040527, -76.62734985351562, -111.51087188720703, 7.449888229370117, -0.2844279706478119, 2.435901165008545, -2.474647045135498, -44.693206787109375, 7.133205413818359, 
601, 3025750320, -8.889476776123047, -77.0012435913086, -111.02014923095703, 7.965411186218262, -0.4739561080932617, 2.3113179206848145, -2.670186996459961, -48.60733413696289, 7.061538219451904, 
