PacketCounter,SampleTimeFine,Euler_X,Euler_Y,Euler_Z,Acc_X,Acc_Y,Acc_Z,Gyr_X,Gyr_Y,Gyr_Z,
0, 3355270472, 3.1645915508270264, -88.42095184326172, 57.72617721557617, 0, 0, 0, 0, 0, 0, 
1, 3355278805, 3.067875862121582, -88.42157745361328, 57.82806396484375, 9.808110237121582, -0.032631151378154755, 0.24597351253032684, 1.2149728536605835, -2.2990057468414307, 0.6725401282310486, 
2, 3355287138, 3.013864278793335, -88.42195129394531, 57.88634490966797, 9.811788558959961, -0.032617248594760895, 0.2494594156742096, 1.1067782640457153, -2.246342658996582, 0.6747174263000488, 
3, 3355295471, 2.92154860496521, -88.42306518554688, 57.983177185058594, 9.834220886230469, -0.03306395187973976, 0.2674011290073395, 1.1160763502120972, -2.4078917503356934, 0.6603221297264099, 
4, 3355303804, 2.867694854736328, -88.4238052368164, 58.04180908203125, 9.806976318359375, -0.05752430856227875, 0.276762455701828, 1.1440726518630981, -2.305793285369873, 0.6773043274879456, 
5, 3355312137, 2.7884929180145264, -88.4239273071289, 58.12515640258789, 9.814345359802246, -0.031844478100538254, 0.274688184261322, 1.0557035207748413, -2.304922580718994, 0.6099645495414734, 
6, 3355320470, 2.776449203491211, -88.42555236816406, 58.142574310302734, 9.777910232543945, -0.03664088249206543, 0.24609479308128357, 1.209747552871704, -2.439448595046997, 0.5476707816123962, 
7, 3355328803, 2.745990753173828, -88.42803192138672, 58.178226470947266, 9.843181610107422, -0.05112240090966225, 0.21802303194999695, 1.2291886806488037, -2.5475149154663086, 0.4659101068973541, 
8, 3355337136, 2.7318360805511475, -88.42927551269531, 58.19636154174805, 9.817176818847656, -0.039985544979572296, 0.21361327171325684, 1.0457652807235718, -2.3683691024780273, 0.5476451516151428, 
9, 3355345469, 2.696096181869507, -88.42890930175781, 58.23665237426758, 9.843953132629395, -0.048375651240348816, 0.27686893939971924, 1.0855953693389893, -2.2420654296875, 0.46470627188682556, 
10, 3355353802, 2.7196781635284424, -88.42927551269531, 58.21772003173828, 9.809636116027832, -0.025092698633670807, 0.2481725960969925, 1.1220954656600952, -2.2912702560424805, 0.42187923192977905, 
11, 3355362135, 2.6913719177246094, -88.42877960205078, 58.2505989074707, 9.834299087524414, -0.03126249089837074, 0.24988341331481934, 1.1486319303512573, -2.192142963409424, 0.4400397539138794, 
12, 3355370468, 2.7010984420776367, -88.42865753173828, 58.24647521972656, 9.832070350646973, -0.0451456643640995, 0.22579388320446014, 1.2407407760620117, -2.234816551208496, 0.46678104996681213, 
13, 3355378801, 2.667179584503174, -88.4262924194336, 58.2856330871582, 9.838462829589844, -0.023872816935181618, 0.23474116623401642, 1.1607218980789185, -2.015481948852539, 0.451771080493927, 
14, 3355387134, 2.6242852210998535, -88.4260482788086, 58.333717346191406, 9.817171096801758, -0.03427659347653389, 0.23634350299835205, 1.2072886228561401, -2.2026963233947754, 0.6383707523345947, 
15, 3355395467, 2.564253568649292, -88.42529296875, 58.39725875854492, 9.838762283325195, -0.00537709379568696, 0.28095635771751404, 1.098504900932312, -2.0641231536865234, 0.5388594269752502, 
16, 3355403800, 2.507122039794922, -88.42418670654297, 58.4600830078125, 9.794292449951172, -0.03702343627810478, 0.2633756995201111, 1.2578511238098145, -2.076956033706665, 0.6801987886428833, 
17, 3355412133, 2.3759114742279053, -88.42207336425781, 58.59770202636719, 9.831655502319336, -0.026301471516489983, 0.23548536002635956, 1.2519854307174683, -2.105823040008545, 0.7821691632270813, 
18, 3355420466, 2.3326592445373535, -88.42219543457031, 58.6460075378418, 9.804855346679688, -0.02656431682407856, 0.2407396137714386, 1.1850810050964355, -2.2243402004241943, 0.6407785415649414, 
19, 3355428799, 2.2225685119628906, -88.42243957519531, 58.760276794433594, 9.825279235839844, -0.04238073527812958, 0.2707434892654419, 1.1432784795761108, -2.220088243484497, 0.7148804664611816, 
20, 3355437132, 2.171825885772705, -88.42231750488281, 58.816768646240234, 9.828059196472168, -0.03565610945224762, 0.24585211277008057, 1.2629226446151733, -2.199878454208374, 0.6652657389640808, 
21, 3355445465, 2.105729818344116, -88.42306518554688, 58.88797378540039, 9.815187454223633, -0.0200438741594553, 0.26551342010498047, 1.1371312141418457, -2.4130661487579346, 0.5763075351715088, 
22, 3355453798, 2.0735936164855957, -88.42231750488281, 58.923736572265625, 9.838240623474121, -0.013727476820349693, 0.273285835981369, 1.006421685218811, -2.1273133754730225, 0.5946472883224487, 
23, 3355462131, 2.015322685241699, -88.42282104492188, 58.986209869384766, 9.834434509277344, -0.03894754871726036, 0.24878911674022675, 1.0818043947219849, -2.3469557762145996, 0.5476964116096497, 
24, 3355470464, 2.032205104827881, -88.42231750488281, 58.9736213684082, 9.813443183898926, -0.03611074760556221, 0.2423366755247116, 1.0905901193618774, -2.185227155685425, 0.4375551640987396, 
25, 3355478797, 1.9978322982788086, -88.42182922363281, 59.01226043701172, 9.836485862731934, -0.043763842433691025, 0.2293972671031952, 1.0808055400848389, -2.211738109588623, 0.46370729804039, 
26, 3355487130, 2.0145554542541504, -88.42231750488281, 58.99919509887695, 9.802328109741211, -0.027218852192163467, 0.2199312001466751, 1.0705598592758179, -2.25966215133667, 0.44019341468811035, 
27, 3355495463, 2.007716417312622, -88.42269134521484, 59.01134490966797, 9.84670352935791, -0.021247990429401398, 0.25722450017929077, 1.1539852619171143, -2.336427927017212, 0.3813318908214569, 
28, 3355503796, 1.9702988862991333, -88.4236831665039, 59.05350112915039, 9.824040412902832, -0.02694118022918701, 0.2535626292228699, 1.184210181236267, -2.3201632499694824, 0.623207151889801, 
29, 3355512129, 1.8719971179962158, -88.4234390258789, 59.1575927734375, 9.858717918395996, -0.019154900684952736, 0.26102423667907715, 1.240484595298767, -2.250108003616333, 0.6832724809646606, 
30, 3355520462, 1.7923648357391357, -88.4238052368164, 59.24211120605469, 9.806632041931152, -0.05112424120306969, 0.21773670613765717, 1.1470952033996582, -2.2736732959747314, 0.7595261335372925, 
31, 3355528795, 1.6732133626937866, -88.42455291748047, 59.366756439208984, 9.81997299194336, -0.03569105267524719, 0.23466674983501434, 1.2325698137283325, -2.3458797931671143, 0.7545056939125061, 
32, 3355537128, 1.6249265670776367, -88.4249267578125, 59.419525146484375, 9.813971519470215, -0.036787476390600204, 0.22464263439178467, 1.1604913473129272, -2.2419116497039795, 0.6555835604667664, 
33, 3355545461, 1.5813859701156616, -88.42405700683594, 59.467533111572266, 9.822120666503906, -0.008590590208768845, 0.25630322098731995, 1.122018814086914, -2.1444239616394043, 0.49564826488494873, 
34, 3355553794, 1.6085888147354126, -88.4238052368164, 59.444610595703125, 9.807454109191895, -0.0360662043094635, 0.2477778047323227, 1.084391474723816, -2.2031829357147217, 0.4038980305194855, 
35, 3355562127, 1.5814998149871826, -88.42282104492188, 59.47593688964844, 9.81627082824707, -0.029717102646827698, 0.27007225155830383, 1.0180761814117432, -2.232844114303589, 0.44295981526374817, 
36, 3355570460, 1.630664348602295, -88.42256164550781, 59.43083572387695, 9.824935913085938, -0.027281856164336205, 0.237564355134964, 1.085774540901184, -2.1887621879577637, 0.3299753665924072, 
37, 3355578793, 1.6480566263198853, -88.42132568359375, 59.417781829833984, 9.848514556884766, -0.02260803058743477, 0.2442050576210022, 1.0756313800811768, -2.159510612487793, 0.295805960893631, 
38, 3355587126, 1.698046326637268, -88.41983795166016, 59.370574951171875, 9.809768676757812, -0.024972036480903625, 0.23310624063014984, 0.8990468382835388, -2.0701937675476074, 0.3194991648197174, 
39, 3355595459, 1.7213867902755737, -88.41947174072266, 59.350643157958984, 9.825576782226562, -0.013738065026700497, 0.2512279748916626, 1.0238906145095825, -2.188992500305176, 0.27462300658226013, 
40, 3355603792, 1.7724790573120117, -88.4183578491211, 59.3036994934082, 9.818947792053223, -0.016651269048452377, 0.26349741220474243, 1.0551143884658813, -2.1165554523468018, 0.3211641013622284, 
41, 3355612125, 1.745226502418518, -88.41761016845703, 59.335227966308594, 9.828283309936523, -0.02205672487616539, 0.24285876750946045, 1.0924599170684814, -2.1670923233032227, 0.44459906220436096, 
42, 3355620458, 1.73344886302948, -88.4168701171875, 59.35214614868164, 9.816064834594727, -0.03301208093762398, 0.23910707235336304, 1.169072151184082, -2.1877119541168213, 0.5349661707878113, 
43, 3355628791, 1.6460258960723877, -88.41724395751953, 59.444583892822266, 9.805367469787598, -0.028778331354260445, 0.26942363381385803, 1.1994762420654297, -2.2742366790771484, 0.6507680416107178, 
44, 3355637124, 1.5864559412002563, -88.41736602783203, 59.50938415527344, 9.832886695861816, -0.008700822480022907, 0.28434133529663086, 1.1660497188568115, -2.294523239135742, 0.695439338684082, 
45, 3355645457, 1.4993447065353394, -88.4181137084961, 59.60222625732422, 9.837315559387207, -0.030175071209669113, 0.2589549124240875, 1.2520623207092285, -2.3489534854888916, 0.6543028354644775, 
46, 3355653790, 1.4259717464447021, -88.41983795166016, 59.67994689941406, 9.830265998840332, -0.031139954924583435, 0.21833857893943787, 1.1571358442306519, -2.377410888671875, 0.7421852350234985, 
47, 3355662123, 1.318579912185669, -88.42008972167969, 59.79375076293945, 9.841885566711426, -0.01831682212650776, 0.25920164585113525, 1.2625385522842407, -2.348620653152466, 0.7201571464538574, 
48, 3355670456, 1.231285810470581, -88.42182922363281, 59.88624572753906, 9.809484481811523, -0.002312083262950182, 0.25523045659065247, 1.214102029800415, -2.400514841079712, 0.7896228432655334, 
49, 3355678789, 1.119884967803955, -88.42182922363281, 60.001976013183594, 9.80088996887207, -0.012963304296135902, 0.2231604903936386, 1.1424845457077026, -2.246650218963623, 0.7287890315055847, 
50, 3355687122, 1.0513664484024048, -88.42231750488281, 60.075927734375, 9.812875747680664, -0.03150441497564316, 0.2612118721008301, 1.2073909044265747, -2.3027708530426025, 0.7249467968940735, 
51, 3355695455, 0.9176754355430603, -88.42219543457031, 60.216068267822266, 9.830924987792969, -0.055307913571596146, 0.2435806840658188, 1.2991156578063965, -2.2981605529785156, 0.8074504137039185, 
52, 3355703788, 0.813823401927948, -88.42182922363281, 60.32524108886719, 9.817562103271484, -0.01087905652821064, 0.22051620483398438, 1.227113962173462, -2.149649143218994, 0.840825617313385, 
53, 3355712121, 0.6884048581123352, -88.42256164550781, 60.45606231689453, 9.84655475616455, -0.02579033188521862, 0.24486514925956726, 1.2515243291854858, -2.3275396823883057, 0.7793259024620056, 
54, 3355720454, 0.6192531585693359, -88.42132568359375, 60.53081130981445, 9.812192916870117, -0.015001594088971615, 0.24073706567287445, 1.2411249876022339, -2.0763156414031982, 0.7249724268913269, 
55, 3355728787, 0.5079122185707092, -88.42132568359375, 60.6478271484375, 9.822851181030273, -0.02607942745089531, 0.2444395124912262, 1.2551872730255127, -2.2496213912963867, 0.7329897880554199, 
56, 3355737120, 0.44338417053222656, -88.42070770263672, 60.71733093261719, 9.824825286865234, -0.06005910038948059, 0.24798046052455902, 1.1724789142608643, -2.1594338417053223, 0.7098345756530762, 
57, 3355745453, 0.34904712438583374, -88.41983795166016, 60.81697463989258, 9.829963684082031, -0.023944374173879623, 0.25303152203559875, 1.2053418159484863, -2.179950475692749, 0.6760749220848083, 
58, 3355753786, 0.3409227132797241, -88.41934967041016, 60.83034133911133, 9.81000804901123, -0.03192660212516785, 0.24211710691452026, 1.1918431520462036, -2.1993408203125, 0.5238751769065857, 
59, 3355762119, 0.2533017694950104, -88.41934967041016, 60.923797607421875, 9.821579933166504, -0.025243086740374565, 0.259931743144989, 1.298270344734192, -2.2095096111297607, 0.6575302481651306, 
60, 3355770452, 0.21500974893569946, -88.41934967041016, 60.968536376953125, 9.83002758026123, -0.03000146895647049, 0.2582305371761322, 1.3061082363128662, -2.294266939163208, 0.6270493268966675, 
61, 3355778785, 0.14457522332668304, -88.4186019897461, 61.04405975341797, 9.81612491607666, -0.02351110428571701, 0.2535359561443329, 1.1756293773651123, -2.183152675628662, 0.5973623991012573, 
62, 3355787118, 0.12159085273742676, -88.4189682006836, 61.072391510009766, 9.814862251281738, -0.030150849372148514, 0.24461688101291656, 1.2405614852905273, -2.2445242404937744, 0.5740790367126465, 
63, 3355795451, 0.03965071216225624, -88.4183578491211, 61.159507751464844, 9.8187255859375, -0.0243179053068161, 0.25621405243873596, 1.1888718605041504, -2.2133519649505615, 0.6362704634666443, 
64, 3355803784, -0.004025632981210947, -88.41786193847656, 61.20830535888672, 9.825510025024414, -0.019853053614497185, 0.27540865540504456, 1.1920737028121948, -2.166707992553711, 0.642827570438385, 
65, 3355812117, -0.07704437524080276, -88.4181137084961, 61.28673553466797, 9.82951545715332, -0.008190668188035488, 0.2623338997364044, 1.2281897068023682, -2.274338960647583, 0.6095547676086426, 
66, 3355820450, -0.12626582384109497, -88.4181137084961, 61.341957092285156, 9.831945419311523, -0.021776391193270683, 0.2622201144695282, 1.2516781091690063, -2.3004143238067627, 0.6601428389549255, 
67, 3355828783, -0.1860906034708023, -88.4188461303711, 61.40671920776367, 9.812967300415039, -0.02215014211833477, 0.24500788748264313, 1.18467116355896, -2.3094818592071533, 0.5658568739891052, 
68, 3355837116, -0.19818802177906036, -88.4187240600586, 61.423866271972656, 9.82554817199707, -0.049708232283592224, 0.23129305243492126, 1.186079978942871, -2.2450110912323, 0.5363492965698242, 
69, 3355845449, -0.22049696743488312, -88.4187240600586, 61.450557708740234, 9.822866439819336, -0.027643606066703796, 0.22415341436862946, 1.0896167755126953, -2.26924204826355, 0.43906643986701965, 
70, 3355853782, -0.23851513862609863, -88.4189682006836, 61.473915100097656, 9.83027172088623, -0.011487769894301891, 0.24775801599025726, 1.1974270343780518, -2.269216299057007, 0.5565332770347595, 
71, 3355862115, -0.30465513467788696, -88.4182357788086, 61.545013427734375, 9.83421516418457, -0.039964623749256134, 0.2186092585325241, 1.1764233112335205, -2.196753740310669, 0.5872703194618225, 
72, 3355870448, -0.313012033700943, -88.41909790039062, 61.55800247192383, 9.833438873291016, -0.014688393101096153, 0.23544156551361084, 1.1450459957122803, -2.3036932945251465, 0.5228506326675415, 
73, 3355878781, -0.3512270450592041, -88.41909790039062, 61.60136032104492, 9.807473182678223, -0.029631562530994415, 0.23538054525852203, 1.2021912336349487, -2.2551026344299316, 0.49459806084632874, 
74, 3355887114, -0.3975054919719696, -88.41947174072266, 61.65241622924805, 9.844161033630371, -0.018002890050411224, 0.24675093591213226, 1.1095958948135376, -2.315040349960327, 0.6478480100631714, 
75, 3355895447, -0.4999820590019226, -88.41971588134766, 61.7587776184082, 9.793798446655273, -0.04278259351849556, 0.24829956889152527, 1.066487193107605, -2.2638885974884033, 0.7038919925689697, 
76, 3355903780, -0.6236911416053772, -88.42008972167969, 61.88701248168945, 9.863774299621582, -0.019983232021331787, 0.2558244466781616, 1.1220186948776245, -2.261429786682129, 0.9041696786880493, 
77, 3355912113, -0.7560439109802246, -88.41934967041016, 62.02423095703125, 9.79223346710205, -0.014799046330153942, 0.2647354304790497, 1.1595948934555054, -2.2179622650146484, 0.8076552748680115, 
78, 3355920446, -0.8258951306343079, -88.41922760009766, 62.09854507446289, 9.841150283813477, -0.018981439992785454, 0.26060566306114197, 1.126373291015625, -2.188992738723755, 0.7265862226486206, 
79, 3355928779, -1.004071831703186, -88.4182357788086, 62.28298568725586, 9.824143409729004, -0.02492430806159973, 0.24297721683979034, 1.2484251260757446, -2.24729061126709, 0.9614431858062744, 
80, 3355937112, -1.1222190856933594, -88.4186019897461, 62.40682601928711, 9.827371597290039, -0.02838210202753544, 0.25327807664871216, 1.2459148168563843, -2.256972551345825, 0.8901074528694153, 
81, 3355945445, -1.2565642595291138, -88.41761016845703, 62.54644775390625, 9.810763359069824, -0.05022206902503967, 0.26102936267852783, 1.2388964891433716, -2.135509967803955, 0.8185668587684631, 
82, 3355953778, -1.322528600692749, -88.41613006591797, 62.61703109741211, 9.803936004638672, -0.029705854132771492, 0.25897738337516785, 1.1245801448822021, -2.086433172225952, 0.7176980376243591, 
83, 3355962111, -1.4320036172866821, -88.4151382446289, 62.73101806640625, 9.84987735748291, -0.02425157092511654, 0.25872793793678284, 1.1642565727233887, -2.0966532230377197, 0.7381381392478943, 
84, 3355970444, -1.5128828287124634, -88.41316986083984, 62.81651306152344, 9.819114685058594, -0.03374403715133667, 0.25833860039711, 1.1070090532302856, -1.9993449449539185, 0.7694132328033447, 
85, 3355978777, -1.5723934173583984, -88.41193389892578, 62.88099670410156, 9.832160949707031, -0.017253458499908447, 0.24802201986312866, 1.1521668434143066, -2.136073589324951, 0.5710053443908691, 
86, 3355987110, -1.6029696464538574, -88.41144561767578, 62.91603469848633, 9.816182136535645, -0.027180589735507965, 0.2604399025440216, 1.1513214111328125, -2.17562198638916, 0.6009483933448792, 
87, 3355995443, -1.6692038774490356, -88.41205596923828, 62.987274169921875, 9.810559272766113, -0.04022768512368202, 0.2619885504245758, 1.1444824934005737, -2.370751142501831, 0.5872703790664673, 
88, 3356003776, -1.6619834899902344, -88.41378021240234, 62.98483657836914, 9.79875373840332, -0.03538014367222786, 0.24197053909301758, 1.1467877626419067, -2.4226455688476562, 0.46747255325317383, 
89, 3356012109, -1.7114123106002808, -88.41415405273438, 63.03931427001953, 9.805887222290039, -0.04371025413274765, 0.2567124366760254, 1.1909723281860352, -2.321622848510742, 0.5349149107933044, 
90, 3356020442, -1.7328271865844727, -88.4150161743164, 63.065494537353516, 9.857609748840332, -0.01788218319416046, 0.24912752211093903, 1.1389498710632324, -2.325747013092041, 0.5641151666641235, 
91, 3356028775, -1.7981137037277222, -88.4146499633789, 63.13561248779297, 9.817200660705566, -0.004163630772382021, 0.27498170733451843, 1.0999906063079834, -2.3161158561706543, 0.5853493809700012, 
92, 3356037108, -1.8348108530044556, -88.41588592529297, 63.176448822021484, 9.829401016235352, -0.01615336909890175, 0.26854899525642395, 1.1153846979141235, -2.3385541439056396, 0.6134737730026245, 
93, 3356045441, -1.9355343580245972, -88.4166259765625, 63.28199005126953, 9.825992584228516, -0.007501746993511915, 0.24774493277072906, 1.0970962047576904, -2.4014883041381836, 0.7006646394729614, 
94, 3356053774, -2.0141842365264893, -88.41736602783203, 63.36480712890625, 9.841514587402344, -0.02047862485051155, 0.25040093064308167, 1.0936894416809082, -2.323493003845215, 0.7516369223594666, 
95, 3356062107, -2.150169610977173, -88.4181137084961, 63.50580978393555, 9.812376976013184, -0.04407124221324921, 0.2361563891172409, 1.1771918535232544, -2.3363001346588135, 0.8223578333854675, 
96, 3356070440, -2.2368571758270264, -88.41922760009766, 63.59784698486328, 9.836380958557129, -0.02962510846555233, 0.27595263719558716, 1.2101061344146729, -2.3969287872314453, 0.7785062789916992, 
97, 3356078773, -2.3412842750549316, -88.42058563232422, 63.70692443847656, 9.805726051330566, -0.052970658987760544, 0.2443421483039856, 1.151731252670288, -2.432865619659424, 0.7122935056686401, 
98, 3356087106, -2.4128763675689697, -88.42157745361328, 63.783573150634766, 9.82834529876709, -0.018947811797261238, 0.24767936766147614, 1.1408195495605469, -2.3910887241363525, 0.7253310680389404, 
99, 3356095439, -2.5092570781707764, -88.42157745361328, 63.88554000854492, 9.847931861877441, -0.027799904346466064, 0.2619359493255615, 1.2725791931152344, -2.2395551204681396, 0.6975909471511841, 
100, 3356103772, -2.542856216430664, -88.42120361328125, 63.92424011230469, 9.816519737243652, -0.04114235192537308, 0.28607556223869324, 1.1909979581832886, -2.1965999603271484, 0.6097084879875183, 
101, 3356112105, -2.6126866340637207, -88.42157745361328, 63.99883270263672, 9.811450958251953, -0.044051643460989, 0.2516256272792816, 1.141383171081543, -2.321367025375366, 0.6021266579627991, 
102, 3356120438, -2.629981517791748, -88.4236831665039, 64.02191162109375, 9.827259063720703, -0.031388599425554276, 0.21226876974105835, 1.2758322954177856, -2.473464250564575, 0.5456728935241699, 
103, 3356128771, -2.7150001525878906, -88.4238052368164, 64.11275482177734, 9.81242847442627, -0.04330611601471901, 0.24403099715709686, 1.225679636001587, -2.337043046951294, 0.6535344123840332, 
104, 3356137104, -2.746927261352539, -88.4249267578125, 64.14895629882812, 9.840399742126465, -0.01967618241906166, 0.2434694468975067, 1.136465311050415, -2.3446760177612305, 0.5955950021743774, 
105, 3356145437, -2.8428378105163574, -88.42579650878906, 64.2498779296875, 9.816401481628418, -0.04092468321323395, 0.26063650846481323, 1.1541132926940918, -2.3807406425476074, 0.6872426867485046, 
106, 3356153770, -2.9169342517852783, -88.4262924194336, 64.32947540283203, 9.834480285644531, -0.019836271181702614, 0.23949286341667175, 1.2341835498809814, -2.3028221130371094, 0.7392396330833435, 
107, 3356162103, -3.0232553482055664, -88.42741394042969, 64.4413833618164, 9.834640502929688, -0.0133522255346179, 0.2651471197605133, 1.2068530321121216, -2.472926139831543, 0.7164685726165771, 
108, 3356170436, -3.1243600845336914, -88.42890930175781, 64.54840850830078, 9.832159996032715, -0.01829824037849903, 0.23611369729042053, 1.2750637531280518, -2.408224582672119, 0.8238433599472046, 
109, 3356178769, -3.318293333053589, -88.4300308227539, 64.74768829345703, 9.827409744262695, -0.01982736773788929, 0.26748713850975037, 1.2263199090957642, -2.4587106704711914, 1.0061655044555664, 
110, 3356187102, -3.438416004180908, -88.43214416503906, 64.8731689453125, 9.81917953491211, -0.022455880418419838, 0.24402058124542236, 1.2413040399551392, -2.4762561321258545, 0.8777869939804077, 
111, 3356195435, -3.6022729873657227, -88.43202209472656, 65.04336547851562, 9.813680648803711, -0.031553104519844055, 0.25749433040618896, 1.25751793384552, -2.352385997772217, 0.91264808177948, 
112, 3356203768, -3.7225444316864014, -88.43252563476562, 65.16841125488281, 9.839873313903809, -0.03965869918465614, 0.2486594170331955, 1.148888111114502, -2.321700096130371, 0.8861117362976074, 
113, 3356212101, -3.8423967361450195, -88.43376922607422, 65.29295349121094, 9.816752433776855, -0.026083283126354218, 0.2634519040584564, 1.1637444496154785, -2.3982865810394287, 0.7628815770149231, 
114, 3356220434, -3.917365312576294, -88.43527221679688, 65.37361907958984, 9.823807716369629, -0.04518524184823036, 0.2890620827674866, 1.252344012260437, -2.4493870735168457, 0.7296343445777893, 
115, 3356228767, -4.033441543579102, -88.4366455078125, 65.49476623535156, 9.813041687011719, -0.04664250835776329, 0.2335316687822342, 1.1680220365524292, -2.4560210704803467, 0.7469751834869385, 
116, 3356237100, -4.080112934112549, -88.43714904785156, 65.54627990722656, 9.81098747253418, -0.03790822997689247, 0.2548312544822693, 1.1907930374145508, -2.2915518283843994, 0.6453378796577454, 
117, 3356245433, -4.149486064910889, -88.4372787475586, 65.62064361572266, 9.81843376159668, -0.0035598843824118376, 0.24375692009925842, 1.1512445211410522, -2.291372537612915, 0.6042270064353943, 
118, 3356253766, -4.223609924316406, -88.43852996826172, 65.69960021972656, 9.826313018798828, -0.04031119495630264, 0.24922461807727814, 1.1535755395889282, -2.3937528133392334, 0.7258690595626831, 
119, 3356262099, -4.280766487121582, -88.43840026855469, 65.76194763183594, 9.823554992675781, -0.013298041187226772, 0.2480185180902481, 1.1600558757781982, -2.3041539192199707, 0.5630905032157898, 
120, 3356270432, -4.295552730560303, -88.43952941894531, 65.78141021728516, 9.847679138183594, -0.0194664616137743, 0.24121591448783875, 1.1973247528076172, -2.3215975761413574, 0.5400377511978149, 
121, 3356278765, -4.366316318511963, -88.4402847290039, 65.85681915283203, 9.823047637939453, -0.016621699556708336, 0.2557058036327362, 1.130958080291748, -2.357150077819824, 0.601793646812439, 
122, 3356287098, -4.398599147796631, -88.44065856933594, 65.89342498779297, 9.824448585510254, -0.030380666255950928, 0.2460358887910843, 1.107444167137146, -2.252951145172119, 0.6000518798828125, 
123, 3356295431, -4.454966068267822, -88.43952941894531, 65.95602416992188, 9.841157913208008, -0.029861755669116974, 0.25063973665237427, 1.2904067039489746, -2.2239558696746826, 0.5714663863182068, 
124, 3356303764, -4.517144203186035, -88.43903350830078, 66.02371978759766, 9.785122871398926, -0.01933618262410164, 0.25614234805107117, 1.2293424606323242, -2.193603038787842, 0.7046860456466675, 
125, 3356312097, -4.593692302703857, -88.43927764892578, 66.1054458618164, 9.814133644104004, -0.01575937122106552, 0.24552932381629944, 1.1643333435058594, -2.3175246715545654, 0.6271772980690002, 
126, 3356320430, -4.636789798736572, -88.43915557861328, 66.15412902832031, 9.80144214630127, -0.03783665969967842, 0.23943808674812317, 1.2673027515411377, -2.208638906478882, 0.6417006850242615, 
127, 3356328763, -4.695070743560791, -88.43827819824219, 66.21841430664062, 9.831243515014648, -0.023558039218187332, 0.25081804394721985, 1.2612833976745605, -2.1789772510528564, 0.5838380455970764, 
128, 3356337096, -4.719398498535156, -88.43802642822266, 66.24730682373047, 9.812745094299316, -0.018952365964651108, 0.23647545278072357, 1.160107135772705, -2.221829891204834, 0.5765379667282104, 
129, 3356345429, -4.787384033203125, -88.43802642822266, 66.32052612304688, 9.826979637145996, -0.02273201383650303, 0.24674203991889954, 1.1690465211868286, -2.324824810028076, 0.5997957587242126, 
130, 3356353762, -4.818027496337891, -88.43878173828125, 66.35577392578125, 9.809983253479004, -0.04368750751018524, 0.23540885746479034, 1.1443032026290894, -2.322519302368164, 0.5882437229156494, 
131, 3356362095, -4.8985795974731445, -88.43952941894531, 66.4412612915039, 9.8096923828125, -0.01958196982741356, 0.2561248540878296, 1.1462242603302002, -2.3653721809387207, 0.6370131969451904, 
132, 3356370428, -4.917211055755615, -88.44078826904297, 66.46428680419922, 9.817928314208984, -0.01778106950223446, 0.26773688197135925, 1.097505807876587, -2.3931121826171875, 0.5416514277458191, 
133, 3356378761, -4.989006519317627, -88.44178771972656, 66.5421371459961, 9.823600769042969, -0.022558094933629036, 0.23905783891677856, 1.3406873941421509, -2.3478264808654785, 0.6163169145584106, 
134, 3356387094, -5.026164531707764, -88.44178771972656, 66.58467102050781, 9.832674026489258, -0.028978895395994186, 0.24893486499786377, 1.2107465267181396, -2.2616090774536133, 0.6155741214752197, 
135, 3356395427, -5.108128547668457, -88.44304656982422, 66.67115783691406, 9.823185920715332, 0.002252754056826234, 0.2209298312664032, 1.1309581995010376, -2.409787178039551, 0.6386525630950928, 
136, 3356403760, -5.140457630157471, -88.44316864013672, 66.70838165283203, 9.83329963684082, -0.017853811383247375, 0.26568228006362915, 1.168073296546936, -2.2814342975616455, 0.597183108329773, 
137, 3356412093, -5.235288619995117, -88.44279479980469, 66.80850219726562, 9.809499740600586, -0.02109789103269577, 0.256666898727417, 1.1595180034637451, -2.2923715114593506, 0.6926217675209045, 
138, 3356420426, -5.3109002113342285, -88.44316864013672, 66.88906860351562, 9.822885513305664, -0.011629711836576462, 0.2747446894645691, 1.1509373188018799, -2.3102760314941406, 0.7345010042190552, 
139, 3356428759, -5.387340068817139, -88.44316864013672, 66.97069549560547, 9.825687408447266, -0.03381115943193436, 0.2166156768798828, 1.2205054759979248, -2.2647337913513184, 0.637807309627533, 
140, 3356437092, -5.460727214813232, -88.44405364990234, 67.0492935180664, 9.81639289855957, -0.037706874310970306, 0.25534334778785706, 1.1958389282226562, -2.366499185562134, 0.7241016030311584, 
141, 3356445425, -5.544988632202148, -88.44405364990234, 67.13902282714844, 9.79084587097168, -0.027302518486976624, 0.25816330313682556, 1.2067761421203613, -2.2966232299804688, 0.6572484374046326, 
142, 3356453758, -5.61873197555542, -88.4445571899414, 67.21701049804688, 9.818026542663574, -0.02840958721935749, 0.2606517970561981, 1.1001954078674316, -2.328308343887329, 0.7265093922615051, 
143, 3356462091, -5.67039155960083, -88.44631958007812, 67.27352142333984, 9.808107376098633, -0.02528577670454979, 0.22718486189842224, 1.1629246473312378, -2.460759401321411, 0.5348892211914062, 
144, 3356470424, -5.713595390319824, -88.44732666015625, 67.32170867919922, 9.85442066192627, -0.026625189930200577, 0.2662719190120697, 1.175577998161316, -2.367575168609619, 0.6238987445831299, 
145, 3356478757, -5.738328456878662, -88.44883728027344, 67.35092163085938, 9.810715675354004, -0.028471577912569046, 0.249469593167305, 1.0762461423873901, -2.468904972076416, 0.4443429708480835, 
146, 3356487090, -5.749775409698486, -88.45111846923828, 67.3673324584961, 9.844023704528809, -0.008712025359272957, 0.24632158875465393, 1.1831086874008179, -2.503561019897461, 0.5065087676048279, 
147, 3356495423, -5.78434419631958, -88.4521255493164, 67.40644073486328, 9.822253227233887, -0.054608967155218124, 0.2568969130516052, 1.1311118602752686, -2.388988733291626, 0.48627346754074097, 
148, 3356503756, -5.8118157386779785, -88.45389556884766, 67.43836212158203, 9.819910049438477, -0.022189976647496223, 0.22675999999046326, 1.1084688901901245, -2.4396023750305176, 0.5619891285896301, 
149, 3356512089, -5.909079551696777, -88.45326232910156, 67.54090881347656, 9.837435722351074, -0.031244387850165367, 0.23351943492889404, 1.1697636842727661, -2.2742109298706055, 0.7030723094940186, 
150, 3356520422, -5.993812084197998, -88.4535140991211, 67.63063049316406, 9.813016891479492, -0.027168311178684235, 0.24403007328510284, 1.1459423303604126, -2.3064849376678467, 0.762779176235199, 
151, 3356528755, -6.079897403717041, -88.4535140991211, 67.72174072265625, 9.839943885803223, -0.02299771085381508, 0.27615875005722046, 1.2235279083251953, -2.2497494220733643, 0.6710545420646667, 
152, 3356537088, -6.15226936340332, -88.4533920288086, 67.79924011230469, 9.811400413513184, -0.03497560694813728, 0.25529244542121887, 1.207058072090149, -2.2503132820129395, 0.7310943603515625, 
153, 3356545421, -6.21586275100708, -88.45314025878906, 67.86834716796875, 9.805108070373535, -0.028836704790592194, 0.20650720596313477, 1.225064754486084, -2.2494163513183594, 0.5985150337219238, 
154, 3356553754, -6.257884502410889, -88.45249938964844, 67.91624450683594, 9.8351411819458, -0.027020787820219994, 0.2504476308822632, 1.2468369007110596, -2.190375804901123, 0.6391904354095459, 
155, 3356562087, -6.335054397583008, -88.45187377929688, 67.99854278564453, 9.835071563720703, -0.0356944277882576, 0.26134681701660156, 1.1890000104904175, -2.1959338188171387, 0.648744523525238, 
156, 3356570420, -6.354071617126465, -88.45047760009766, 68.02212524414062, 9.82645320892334, -0.03445891663432121, 0.24775093793869019, 1.1062403917312622, -2.117631196975708, 0.5690842866897583, 
157, 3356578753, -6.402381420135498, -88.4498519897461, 68.0751724243164, 9.817290306091309, -0.022473184391856194, 0.204024076461792, 1.191305160522461, -2.1376872062683105, 0.5610413551330566, 
158, 3356587086, -6.402005195617676, -88.4485855102539, 68.0793228149414, 9.814784049987793, -0.019519224762916565, 0.22776953876018524, 1.1434578895568848, -2.089634656906128, 0.5107094049453735, 
159, 3356595419, -6.452106475830078, -88.4485855102539, 68.13402557373047, 9.813224792480469, -0.006388555280864239, 0.2367616444826126, 1.1133612394332886, -2.2675514221191406, 0.5510518550872803, 
160, 3356603752, -6.513514041900635, -88.44808197021484, 68.2005386352539, 9.806751251220703, -0.026905318722128868, 0.2448078840970993, 1.172837257385254, -2.239811420440674, 0.6961308717727661, 
161, 3356612085, -6.58163595199585, -88.44732666015625, 68.2747573852539, 9.825676918029785, -0.00836082175374031, 0.2413618415594101, 1.2676100730895996, -2.2204978466033936, 0.619826078414917, 
162, 3356620418, -6.628324508666992, -88.44757843017578, 68.32744598388672, 9.80767822265625, -0.039487745612859726, 0.2337227314710617, 1.3063386678695679, -2.245753526687622, 0.6511523127555847, 
163, 3356628751, -6.709817886352539, -88.44707489013672, 68.41458892822266, 9.829815864562988, -0.028789333999156952, 0.22397610545158386, 1.235848307609558, -2.2471108436584473, 0.661884605884552, 
164, 3356637084, -6.716822624206543, -88.44644165039062, 68.42687225341797, 9.824042320251465, -0.02053878642618656, 0.274105429649353, 1.2539576292037964, -2.1437580585479736, 0.5318155288696289, 
165, 3356645417, -6.790915489196777, -88.4461898803711, 68.50603485107422, 9.808316230773926, -0.025721963495016098, 0.23297561705112457, 1.1865154504776, -2.2416300773620605, 0.6372181177139282, 
166, 3356653750, -6.827566623687744, -88.4460678100586, 68.54830169677734, 9.804373741149902, -0.03021513670682907, 0.2318039983510971, 1.2612322568893433, -2.239478349685669, 0.6170341372489929, 
167, 3356662083, -6.9222092628479, -88.44544219970703, 68.64924621582031, 9.837091445922852, -0.041305720806121826, 0.243745818734169, 1.2744234800338745, -2.2800257205963135, 0.7025856375694275, 
168, 3356670416, -6.972723007202148, -88.44569396972656, 68.70524597167969, 9.814485549926758, -0.04060680791735649, 0.21977557241916656, 1.2334918975830078, -2.2943952083587646, 0.6567106246948242, 
169, 3356678749, -7.051148891448975, -88.4453125, 68.78849792480469, 9.820117950439453, -0.0013785428600385785, 0.2736716568470001, 1.1698148250579834, -2.227336883544922, 0.6537905335426331, 
170, 3356687082, -7.0997819900512695, -88.44493103027344, 68.8426742553711, 9.80214786529541, -0.01939876191318035, 0.27000656723976135, 1.1962231397628784, -2.235456705093384, 0.6562238931655884, 
171, 3356695415, -7.194986343383789, -88.44417572021484, 68.94377899169922, 9.830903053283691, -0.030271178111433983, 0.28275975584983826, 1.2847459316253662, -2.1896841526031494, 0.7171089053153992, 
172, 3356703748, -7.25819730758667, -88.4446792602539, 69.01168823242188, 9.840805053710938, -0.014397122897207737, 0.23316308856010437, 1.1464035511016846, -2.3319201469421387, 0.6906750202178955, 
173, 3356712081, -7.378978729248047, -88.4445571899414, 69.13848876953125, 9.805179595947266, -0.041296232491731644, 0.2282996028661728, 1.2821333408355713, -2.2988264560699463, 0.787727415561676, 
174, 3356720414, -7.49114990234375, -88.44544219970703, 69.25719451904297, 9.843684196472168, -0.02073579840362072, 0.24102342128753662, 1.3577722311019897, -2.3816115856170654, 0.8507384657859802, 
175, 3356728747, -7.631855487823486, -88.4461898803711, 69.40316009521484, 9.780465126037598, -0.04251996427774429, 0.27022331953048706, 1.236181378364563, -2.3752591609954834, 0.8418503403663635, 
176, 3356737080, -7.7247724533081055, -88.44581604003906, 69.50257110595703, 9.836261749267578, -0.020638439804315567, 0.24500510096549988, 1.3378187417984009, -2.238607406616211, 0.8044534921646118, 
177, 3356745413, -7.8570637702941895, -88.44569396972656, 69.64021301269531, 9.804415702819824, -0.01707560196518898, 0.22825412452220917, 1.2012178897857666, -2.303206443786621, 0.8245606422424316, 
178, 3356753746, -7.981412410736084, -88.44581604003906, 69.7691650390625, 9.812758445739746, -0.03377707302570343, 0.2531300187110901, 1.1313167810440063, -2.2961881160736084, 0.894820511341095, 
179, 3356762079, -8.091017723083496, -88.44556427001953, 69.88374328613281, 9.787753105163574, -0.020386038348078728, 0.24939590692520142, 1.1688159704208374, -2.274083137512207, 0.7530969381332397, 
180, 3356770412, -8.166105270385742, -88.4460678100586, 69.96385192871094, 9.821742057800293, -0.03030729666352272, 0.24283194541931152, 1.1863105297088623, -2.3178834915161133, 0.7327080368995667, 
181, 3356778745, -8.250337600708008, -88.44681549072266, 70.0536880493164, 9.797009468078613, -0.036209043115377426, 0.1998511701822281, 1.1923298835754395, -2.456174612045288, 0.6437753438949585, 
182, 3356787078, -8.301797866821289, -88.44669342041016, 70.10990142822266, 9.834317207336426, -0.02731039561331272, 0.2296331226825714, 1.1499638557434082, -2.258150815963745, 0.6612699031829834, 
183, 3356795411, -8.371049880981445, -88.44631958007812, 70.18328857421875, 9.803583145141602, -0.037459827959537506, 0.24620124697685242, 1.094329595565796, -2.1921427249908447, 0.6322489380836487, 
184, 3356803744, -8.417464256286621, -88.44556427001953, 70.23445892333984, 9.830060958862305, -0.029346268624067307, 0.22237735986709595, 1.1121060848236084, -2.190606117248535, 0.6532526612281799, 
185, 3356812077, -8.474833488464355, -88.44518280029297, 70.2972640991211, 9.832757949829102, -0.008276580832898617, 0.27485525608062744, 1.1769613027572632, -2.320905923843384, 0.5759745240211487, 
186, 3356820410, -8.50914478302002, -88.44593811035156, 70.33706665039062, 9.83791446685791, -0.017372004687786102, 0.2356036901473999, 1.2334150075912476, -2.3319201469421387, 0.595953643321991, 
187, 3356828743, -8.598164558410645, -88.44669342041016, 70.43030548095703, 9.816092491149902, -0.008777043782174587, 0.24049875140190125, 1.200987458229065, -2.2796413898468018, 0.6879087090492249, 
188, 3356837076, -8.687993049621582, -88.44681549072266, 70.52558898925781, 9.838518142700195, -0.026176532730460167, 0.26828616857528687, 1.1873606443405151, -2.32551646232605, 0.7776353359222412, 
189, 3356845409, -8.780828475952148, -88.44505310058594, 70.6238784790039, 9.803672790527344, -0.038056377321481705, 0.23137935996055603, 1.2017302513122559, -2.143399477005005, 0.7227953672409058, 
190, 3356853742, -8.8812894821167, -88.44493103027344, 70.73004150390625, 9.779053688049316, -0.03812004625797272, 0.25365394353866577, 1.2681480646133423, -2.251952648162842, 0.8258927464485168, 
191, 3356862075, -8.997712135314941, -88.44480895996094, 70.85221099853516, 9.826150894165039, -0.005889976397156715, 0.26248785853385925, 1.2425850629806519, -2.299210548400879, 0.7788136005401611, 
192, 3356870408, -9.058402061462402, -88.44556427001953, 70.91863250732422, 9.817607879638672, -0.03578301891684532, 0.24842387437820435, 1.294633150100708, -2.3487229347229004, 0.6810441017150879, 
193, 3356878741, -9.142789840698242, -88.44480895996094, 71.00880432128906, 9.822928428649902, -0.023858780041337013, 0.2339877337217331, 1.227677583694458, -2.262531042098999, 0.6785339117050171, 
194, 3356887074, -9.199141502380371, -88.44631958007812, 71.06986999511719, 9.811056137084961, -0.026422321796417236, 0.24198082089424133, 1.1615159511566162, -2.3933942317962646, 0.6553274393081665, 
195, 3356895407, -9.307575225830078, -88.44518280029297, 71.1837158203125, 9.831671714782715, -0.013779106549918652, 0.24716345965862274, 1.1668949127197266, -2.234867811203003, 0.7598590850830078, 
196, 3356903740, -9.365869522094727, -88.44505310058594, 71.24676513671875, 9.811171531677246, -0.042667120695114136, 0.24754175543785095, 1.1455838680267334, -2.2459840774536133, 0.6853729486465454, 
197, 3356912073, -9.450818061828613, -88.4460678100586, 71.3360366821289, 9.834976196289062, -0.02218981832265854, 0.2419811189174652, 1.1654349565505981, -2.341884136199951, 0.6652401089668274, 
198, 3356920406, -9.526556015014648, -88.44593811035156, 71.41675567626953, 9.839710235595703, -0.04465275630354881, 0.24401973187923431, 1.1820842027664185, -2.2669625282287598, 0.741468071937561, 
199, 3356928739, -9.60796070098877, -88.44480895996094, 71.50453186035156, 9.80640697479248, -0.02564813196659088, 0.24677184224128723, 1.309079647064209, -2.1843819618225098, 0.6861157417297363, 
200, 3356937072, -9.658099174499512, -88.44505310058594, 71.55928039550781, 9.82797622680664, -0.013255582191050053, 0.21468649804592133, 1.1501432657241821, -2.274108409881592, 0.6544564366340637, 
201, 3356945405, -9.710647583007812, -88.44355010986328, 71.61763000488281, 9.807076454162598, -0.03861269727349281, 0.21217742562294006, 1.234285831451416, -2.145064115524292, 0.595082700252533, 
202, 3356953738, -9.767204284667969, -88.44229125976562, 71.67913055419922, 9.817940711975098, -0.02475697733461857, 0.24917633831501007, 1.162438154220581, -2.1489319801330566, 0.6973860263824463, 
203, 3356962071, -9.860053062438965, -88.441162109375, 71.77725982666016, 9.819308280944824, -0.0318339541554451, 0.265377014875412, 1.2104904651641846, -2.162097692489624, 0.7272778153419495, 
204, 3356970404, -9.915607452392578, -88.43952941894531, 71.8388900756836, 9.821124076843262, -0.019021205604076385, 0.2655431926250458, 1.302983283996582, -2.040045738220215, 0.7178005576133728, 
205, 3356978737, -10.009709358215332, -88.43802642822266, 71.93816375732422, 9.796882629394531, -0.014817550778388977, 0.265035480260849, 1.1876680850982666, -2.1752634048461914, 0.728276789188385, 
206, 3356987070, -10.052719116210938, -88.4372787475586, 71.98600006103516, 9.82705020904541, -0.02417685277760029, 0.28262990713119507, 1.1440215110778809, -2.1507761478424072, 0.6548919677734375, 
207, 3356995403, -10.113164901733398, -88.43714904785156, 72.05155181884766, 9.804657936096191, -0.020224181935191154, 0.26399946212768555, 1.183211088180542, -2.287376880645752, 0.5970549583435059, 
208, 3357003736, -10.169087409973145, -88.43702697753906, 72.1124038696289, 9.820762634277344, -0.03647957742214203, 0.23592662811279297, 1.1519619226455688, -2.282407760620117, 0.6733598709106445, 
209, 3357012069, -10.2673921585083, -88.43903350830078, 72.2147445678711, 9.82961368560791, -0.029112616553902626, 0.265403687953949, 1.0844169855117798, -2.492905378341675, 0.6864230036735535, 
210, 3357020402, -10.34841251373291, -88.43878173828125, 72.3007583618164, 9.829449653625488, -0.00841048639267683, 0.2572188973426819, 1.1414599418640137, -2.27705454826355, 0.7549155354499817, 
211, 3357028735, -10.449554443359375, -88.43765258789062, 72.40807342529297, 9.78748893737793, -0.02986312471330166, 0.2647554278373718, 1.2922253608703613, -2.242936134338379, 0.7468470335006714, 
212, 3357037068, -10.519817352294922, -88.43827819824219, 72.48335266113281, 9.82746410369873, -0.006624577566981316, 0.23245513439178467, 1.2003984451293945, -2.3317151069641113, 0.7123447060585022, 
213, 3357045401, -10.617035865783691, -88.4374008178711, 72.5857925415039, 9.792717933654785, -0.021894747391343117, 0.19878368079662323, 1.1735033988952637, -2.206179618835449, 0.7374466061592102, 
214, 3357053734, -10.705436706542969, -88.43702697753906, 72.67953491210938, 9.831751823425293, -0.024262286722660065, 0.2533230185508728, 1.178472638130188, -2.276644468307495, 0.7820410132408142, 
215, 3357062067, -10.787398338317871, -88.4375228881836, 72.76578521728516, 9.795451164245605, -0.02843167819082737, 0.25023552775382996, 1.1683547496795654, -2.3157572746276855, 0.6668537259101868, 
216, 3357070400, -10.833258628845215, -88.43714904785156, 72.81715393066406, 9.832098007202148, -0.03635745495557785, 0.23602034151554108, 1.2086461782455444, -2.2139408588409424, 0.6542772054672241, 
217, 3357078733, -10.920711517333984, -88.4366455078125, 72.90925598144531, 9.829540252685547, -0.02364993467926979, 0.23522737622261047, 1.0909230709075928, -2.300926685333252, 0.6850398182868958, 
218, 3357087066, -10.939374923706055, -88.4372787475586, 72.93232727050781, 9.80672836303711, -0.017594043165445328, 0.2177978754043579, 1.1196879148483276, -2.297699451446533, 0.5450068712234497, 
219, 3357095399, -11.018280982971191, -88.436767578125, 73.01573181152344, 9.818650245666504, -0.019427882507443428, 0.2670425474643707, 1.1338012218475342, -2.2448313236236572, 0.6703116297721863, 
220, 3357103732, -11.052416801452637, -88.43702697753906, 73.05448150634766, 9.83221435546875, -0.024506397545337677, 0.2282559871673584, 1.144866704940796, -2.2791035175323486, 0.6002568006515503, 
221, 3357112065, -11.138434410095215, -88.43627166748047, 73.14513397216797, 9.838797569274902, -0.010968349874019623, 0.252429336309433, 1.1385400295257568, -2.2199859619140625, 0.7006645798683167, 
222, 3357120398, -11.15489387512207, -88.4355239868164, 73.16657257080078, 9.801910400390625, -0.020862774923443794, 0.2415800392627716, 1.1682780981063843, -2.154387950897217, 0.5662923455238342, 
223, 3357128731, -11.207694053649902, -88.43502044677734, 73.22419738769531, 9.826011657714844, -0.024571508169174194, 0.21563290059566498, 1.1381045579910278, -2.2032852172851562, 0.5932641625404358, 
224, 3357137064, -11.244017601013184, -88.4355239868164, 73.2648696899414, 9.847625732421875, -0.027467947453260422, 0.2116718888282776, 1.1231714487075806, -2.3024635314941406, 0.6028695106506348, 
225, 3357145397, -11.302382469177246, -88.43452453613281, 73.32823181152344, 9.806565284729004, -0.019128769636154175, 0.2316983938217163, 1.128114938735962, -2.250927686691284, 0.6026901602745056, 
226, 3357153730, -11.345403671264648, -88.43327331542969, 73.376953125, 9.81774616241455, -0.033631883561611176, 0.25947555899620056, 1.2432509660720825, -2.099701166152954, 0.6681089401245117, 
227, 3357162063, -11.39533805847168, -88.43315124511719, 73.43110656738281, 9.815135955810547, -0.0014921216061338782, 0.2410438358783722, 1.1119779348373413, -2.2712910175323486, 0.5725165605545044, 
228, 3357170396, -11.411603927612305, -88.43302154541016, 73.45182037353516, 9.832430839538574, -0.04463736712932587, 0.24252761900424957, 1.0937663316726685, -2.2089202404022217, 0.5538694262504578, 
229, 3357178729, -11.474642753601074, -88.43264770507812, 73.51962280273438, 9.827585220336914, -0.029469016939401627, 0.2712688148021698, 1.113079309463501, -2.328333854675293, 0.6028950214385986, 
230, 3357187062, -11.478317260742188, -88.43214416503906, 73.52836608886719, 9.836111068725586, -0.022540826350450516, 0.26534906029701233, 1.190741777420044, -2.1663496494293213, 0.5227481722831726, 
231, 3357195395, -11.54847526550293, -88.43252563476562, 73.60380554199219, 9.83900260925293, -0.03142084181308746, 0.2444065511226654, 1.2003984451293945, -2.348594903945923, 0.6266138553619385, 
232, 3357203728, -11.6035737991333, -88.43289947509766, 73.66397857666016, 9.792201042175293, -0.03525029122829437, 0.23618954420089722, 1.2070324420928955, -2.3146049976348877, 0.6648046970367432, 
233, 3357212061, -11.697142601013184, -88.4312744140625, 73.76258850097656, 9.83662223815918, -0.017006488516926765, 0.24318891763687134, 1.1749889850616455, -2.1311557292938232, 0.7489987015724182, 
234, 3357220394, -11.763144493103027, -88.43077087402344, 73.8333740234375, 9.823402404785156, -0.030383121222257614, 0.2414587140083313, 1.1481966972351074, -2.1994943618774414, 0.7250750064849854, 
235, 3357228727, -11.838479042053223, -88.43040466308594, 73.91380310058594, 9.815406799316406, -0.02440524473786354, 0.2520805299282074, 1.1494773626327515, -2.317652940750122, 0.6488982439041138, 
236, 3357237060, -11.902652740478516, -88.4312744140625, 73.98342895507812, 9.834294319152832, -0.03715965524315834, 0.23583289980888367, 1.2217350006103516, -2.383763074874878, 0.6812490224838257, 
237, 3357245393, -11.972411155700684, -88.43240356445312, 74.05821228027344, 9.834831237792969, -0.03362972289323807, 0.23290416598320007, 1.2022937536239624, -2.4017956256866455, 0.6153180003166199, 
238, 3357253726, -12.0327730178833, -88.4322738647461, 74.12349700927734, 9.821826934814453, -0.020779090002179146, 0.22656288743019104, 1.1735033988952637, -2.2566912174224854, 0.694286584854126, 
239, 3357262059, -12.117707252502441, -88.4322738647461, 74.21319580078125, 9.837291717529297, -0.030317891389131546, 0.2812815010547638, 1.1418955326080322, -2.2898614406585693, 0.6875245571136475, 
240, 3357270392, -12.17353343963623, -88.43252563476562, 74.27405548095703, 9.80649471282959, -0.028752202168107033, 0.24968713521957397, 1.1960951089859009, -2.3108651638031006, 0.6692615151405334, 
241, 3357278725, -12.264914512634277, -88.43202209472656, 74.37071228027344, 9.843647003173828, -0.025899723172187805, 0.25931668281555176, 1.2168939113616943, -2.213531255722046, 0.7289683818817139, 
242, 3357287058, -12.320001602172852, -88.43177795410156, 74.43119049072266, 9.835071563720703, -0.031990453600883484, 0.20665255188941956, 1.2173035144805908, -2.272904634475708, 0.6739488840103149, 
243, 3357295391, -12.378183364868164, -88.4300308227539, 74.49514770507812, 9.81836223602295, -0.0006449048523791134, 0.24311542510986328, 1.2100292444229126, -2.152543544769287, 0.6324282288551331, 
244, 3357303724, -12.440264701843262, -88.4300308227539, 74.56270599365234, 9.839057922363281, 0.004332549404352903, 0.22896915674209595, 1.2294193506240845, -2.302053928375244, 0.691827654838562, 
245, 3357312057, -12.537210464477539, -88.4301528930664, 74.66437530517578, 9.84830379486084, -0.010145716369152069, 0.25119003653526306, 1.1402561664581299, -2.321110963821411, 0.7246907949447632, 
246, 3357320390, -12.601705551147461, -88.42953491210938, 74.73371887207031, 9.818408966064453, -0.004945073276758194, 0.22605061531066895, 1.160568356513977, -2.2151191234588623, 0.716519832611084, 
247, 3357328723, -12.712908744812012, -88.42877960205078, 74.85022735595703, 9.82247257232666, -0.01803538203239441, 0.24740436673164368, 1.178908109664917, -2.2508766651153564, 0.7899301648139954, 
248, 3357337056, -12.809562683105469, -88.42890930175781, 74.95148468017578, 9.822834014892578, -0.02674666978418827, 0.2801230251789093, 1.1723508834838867, -2.266040086746216, 0.815313994884491, 
249, 3357345389, -12.865191459655762, -88.42853546142578, 75.01193237304688, 9.815608024597168, -0.02749462053179741, 0.25293612480163574, 1.1489393711090088, -2.2480335235595703, 0.6031256318092346, 
250, 3357353722, -12.939824104309082, -88.42829132080078, 75.09219360351562, 9.821956634521484, -0.011589525267481804, 0.235009104013443, 1.2331589460372925, -2.2736220359802246, 0.7403666973114014, 
251, 3357362055, -12.98697566986084, -88.42765808105469, 75.14495086669922, 9.823819160461426, -0.04018757492303848, 0.25574249029159546, 1.2455307245254517, -2.2444729804992676, 0.5791250467300415, 
252, 3357370388, -13.03915786743164, -88.42679595947266, 75.20225524902344, 9.825946807861328, -0.020315073430538177, 0.2257077842950821, 1.1871302127838135, -2.1746485233306885, 0.6863462328910828, 
253, 3357378721, -13.083284378051758, -88.4261703491211, 75.25186920166016, 9.822222709655762, -0.018491309136152267, 0.28013232350349426, 1.2013205289840698, -2.2214715480804443, 0.5733363032341003, 
254, 3357387054, -13.129899978637695, -88.42555236816406, 75.30445098876953, 9.827790260314941, -0.018660740926861763, 0.2219306379556656, 1.285079002380371, -2.2158875465393066, 0.6611162424087524, 
255, 3357395387, -13.231881141662598, -88.4261703491211, 75.41127014160156, 9.811799049377441, -0.022464904934167862, 0.23383177816867828, 1.1693027019500732, -2.392702341079712, 0.7283792495727539, 
256, 3357403720, -13.291556358337402, -88.42704010009766, 75.47665405273438, 9.833828926086426, -0.02896154299378395, 0.23229897022247314, 1.2379745244979858, -2.4037935733795166, 0.6606296300888062, 
257, 3357412053, -13.370026588439941, -88.42691802978516, 75.5604476928711, 9.81792163848877, -0.04812789708375931, 0.23880842328071594, 1.2137178182601929, -2.3127858638763428, 0.6692359447479248, 
258, 3357420386, -13.436447143554688, -88.42778778076172, 75.63126373291016, 9.806896209716797, -0.029233338311314583, 0.25993612408638, 1.0992989540100098, -2.3845574855804443, 0.6836311221122742, 
259, 3357428719, -13.526122093200684, -88.42803192138672, 75.72638702392578, 9.808525085449219, -0.020504428073763847, 0.24917440116405487, 1.239946722984314, -2.3301784992218018, 0.7040713429450989, 
260, 3357437052, -13.602412223815918, -88.42790985107422, 75.80746459960938, 9.849055290222168, -0.03445350006222725, 0.2707906663417816, 1.1492723226547241, -2.2598671913146973, 0.7469751238822937, 
261, 3357445385, -13.687176704406738, -88.4265365600586, 75.89830780029297, 9.809667587280273, -0.032911840826272964, 0.23969504237174988, 1.3157905340194702, -2.1706528663635254, 0.7294806241989136, 
262, 3357453718, -13.750405311584473, -88.42529296875, 75.96704864501953, 9.80871868133545, -0.03133433684706688, 0.24197012186050415, 1.2072886228561401, -2.1846635341644287, 0.7237942218780518, 
263, 3357462051, -13.825787544250488, -88.42555236816406, 76.04723358154297, 9.807223320007324, -0.04583284258842468, 0.24751049280166626, 1.1253741979599, -2.3445732593536377, 0.6504862308502197, 
264, 3357470384, -13.897321701049805, -88.4265365600586, 76.1241226196289, 9.840424537658691, -0.020664557814598083, 0.24299973249435425, 1.2377697229385376, -2.408250570297241, 0.6959772109985352, 
265, 3357478717, -13.931889533996582, -88.42704010009766, 76.1634750366211, 9.817286491394043, -0.041981227695941925, 0.23428592085838318, 1.169379472732544, -2.283099412918091, 0.5304580330848694, 
266, 3357487050, -13.950957298278809, -88.42729187011719, 76.18733215332031, 9.803630828857422, -0.024590294808149338, 0.23099273443222046, 1.1402050256729126, -2.3065109252929688, 0.5417795181274414, 
267, 3357495383, -13.988631248474121, -88.42691802978516, 76.22854614257812, 9.838150978088379, -0.004543387331068516, 0.2613275349140167, 1.0269900560379028, -2.215221643447876, 0.551845908164978, 
268, 3357503716, -13.994305610656738, -88.42729187011719, 76.23855590820312, 9.810832023620605, -0.020465994253754616, 0.2585149109363556, 1.099503755569458, -2.274928092956543, 0.5041778087615967, 
269, 3357512049, -14.017510414123535, -88.42716979980469, 76.26715850830078, 9.84864616394043, -0.02290486916899681, 0.2476765513420105, 1.204829454421997, -2.2722644805908203, 0.49472612142562866, 
270, 3357520382, -14.039446830749512, -88.42691802978516, 76.29436492919922, 9.817962646484375, -0.012100111693143845, 0.253061980009079, 1.1789847612380981, -2.2481868267059326, 0.5674705505371094, 
271, 3357528715, -14.110849380493164, -88.4261703491211, 76.37100982666016, 9.826693534851074, -0.02691110037267208, 0.25197330117225647, 1.1846200227737427, -2.2563326358795166, 0.6619614958763123, 
272, 3357537048, -14.193086624145508, -88.42691802978516, 76.45890808105469, 9.810647010803223, -0.011168310418725014, 0.23603522777557373, 1.2538808584213257, -2.4006943702697754, 0.7362171411514282, 
273, 3357545381, -14.293980598449707, -88.42679595947266, 76.56452178955078, 9.826676368713379, -0.018660401925444603, 0.23423254489898682, 1.1989638805389404, -2.2644519805908203, 0.76234370470047, 
274, 3357553714, -14.363306999206543, -88.42555236816406, 76.63884735107422, 9.800227165222168, -0.02240517921745777, 0.24101725220680237, 1.1745023727416992, -2.143091917037964, 0.7553510665893555, 
275, 3357562047, -14.484932899475098, -88.4248046875, 76.76524353027344, 9.830657005310059, -0.030580248683691025, 0.25381502509117126, 1.0984537601470947, -2.298288583755493, 0.8198732733726501, 
276, 3357570380, -14.578189849853516, -88.42455291748047, 76.86424255371094, 9.787476539611816, -0.03487463295459747, 0.2237095981836319, 1.249910593032837, -2.321110486984253, 0.7941052913665771, 
277, 3357578713, -14.699228286743164, -88.42405700683594, 76.9901123046875, 9.86462688446045, -0.032625991851091385, 0.21609540283679962, 1.1328792572021484, -2.311915397644043, 0.815313994884491, 
278, 3357587046, -14.749323844909668, -88.42430877685547, 77.04425811767578, 9.790216445922852, -0.043526191264390945, 0.26403671503067017, 1.0844169855117798, -2.2855324745178223, 0.651638925075531, 
279, 3357595379, -14.844511032104492, -88.4235610961914, 77.14437866210938, 9.847214698791504, -0.035858917981386185, 0.24844953417778015, 1.180752158164978, -2.20676851272583, 0.759859025478363, 
280, 3357603712, -14.880800247192383, -88.42269134521484, 77.18559265136719, 9.80016040802002, -0.03698880970478058, 0.22247542440891266, 1.1565723419189453, -2.18748140335083, 0.6327100992202759, 
281, 3357612045, -14.944901466369629, -88.42207336425781, 77.25487518310547, 9.83287525177002, -0.027171526104211807, 0.25867214798927307, 1.2014740705490112, -2.2314608097076416, 0.647822380065918, 
282, 3357620378, -14.980097770690918, -88.42294311523438, 77.2947769165039, 9.82142162322998, -0.052082911133766174, 0.24449613690376282, 1.1517056226730347, -2.3524370193481445, 0.5844784379005432, 
283, 3357628711, -15.037044525146484, -88.42243957519531, 77.35641479492188, 9.835440635681152, -0.01608172617852688, 0.2811535596847534, 1.1218905448913574, -2.267167091369629, 0.6126540303230286, 
284, 3357637044, -15.055325508117676, -88.42182922363281, 77.37928009033203, 9.807574272155762, -0.004979616496711969, 0.22612687945365906, 1.1091091632843018, -2.1706271171569824, 0.5743864178657532, 
285, 3357645377, -15.091178894042969, -88.42034149169922, 77.41973114013672, 9.812763214111328, 0.007735679857432842, 0.24909944832324982, 1.1068295240402222, -2.1513137817382812, 0.5724653005599976, 
286, 3357653710, -15.160551071166992, -88.42157745361328, 77.49337005615234, 9.811278343200684, -0.033414240926504135, 0.24358144402503967, 1.1218395233154297, -2.419904947280884, 0.6817100644111633, 
287, 3357662043, -15.252424240112305, -88.42282104492188, 77.59053802490234, 9.848249435424805, -0.026998208835721016, 0.2395196408033371, 1.1803680658340454, -2.464883804321289, 0.682171106338501, 
288, 3357670376, -15.310104370117188, -88.4235610961914, 77.65282440185547, 9.801637649536133, -0.021585045382380486, 0.24688154458999634, 1.103986382484436, -2.4058685302734375, 0.6449024081230164, 
289, 3357678709, -15.357429504394531, -88.4234390258789, 77.70426177978516, 9.827081680297852, -0.012400859966874123, 0.2430356740951538, 1.0815227031707764, -2.2520036697387695, 0.5843759775161743, 
290, 3357687042, -15.417093276977539, -88.4238052368164, 77.7695083618164, 9.831725120544434, -0.0008810715517029166, 0.21681825816631317, 1.2274726629257202, -2.3562276363372803, 0.669031023979187, 
291, 3357695375, -15.5174560546875, -88.4238052368164, 77.87451934814453, 9.79617977142334, -0.01966252736747265, 0.24298860132694244, 1.1283456087112427, -2.324824810028076, 0.748614490032196, 
292, 3357703708, -15.616244316101074, -88.4248046875, 77.97794342041016, 9.827432632446289, -0.03152623027563095, 0.22256514430046082, 1.1307789087295532, -2.4672398567199707, 0.7674665451049805, 
293, 3357712041, -15.726083755493164, -88.4251708984375, 78.0920639038086, 9.832571983337402, -0.017896508798003197, 0.2407340109348297, 1.1091347932815552, -2.372774600982666, 0.7673640847206116, 
294, 3357720374, -15.798319816589355, -88.42529296875, 78.16991424560547, 9.819568634033203, -0.009018084965646267, 0.2358541041612625, 1.2119760513305664, -2.339553117752075, 0.7144193649291992, 
295, 3357728707, -15.897783279418945, -88.42591857910156, 78.27410888671875, 9.830195426940918, -0.02162753790616989, 0.23129329085350037, 1.1577506065368652, -2.397645950317383, 0.7252798676490784, 
296, 3357737040, -15.927960395812988, -88.4264144897461, 78.30967712402344, 9.80479621887207, -0.023851869627833366, 0.2314421385526657, 1.235310673713684, -2.2987496852874756, 0.5841966867446899, 
297, 3357745373, -16.010128021240234, -88.42666625976562, 78.396484375, 9.820052146911621, -0.029332349076867104, 0.2194003462791443, 1.1420490741729736, -2.326079845428467, 0.6871402263641357, 
298, 3357753706, -16.06186866760254, -88.42579650878906, 78.45331573486328, 9.849345207214355, -0.004219902213662863, 0.225320503115654, 1.1797531843185425, -2.2052576541900635, 0.6814026832580566, 
299, 3357762039, -16.14974021911621, -88.42455291748047, 78.54621887207031, 9.81015396118164, -0.01148554589599371, 0.22332122921943665, 1.1192010641098022, -2.249006509780884, 0.7285329103469849, 
300, 3357770372, -16.189144134521484, -88.4249267578125, 78.5908432006836, 9.810908317565918, -0.02629176713526249, 0.25431397557258606, 1.2013205289840698, -2.328001022338867, 0.6057127118110657, 
301, 3357778705, -16.270736694335938, -88.42467498779297, 78.67689514160156, 9.838582038879395, -0.016943659633398056, 0.24584122002124786, 1.1366701126098633, -2.269472360610962, 0.7027137279510498, 
302, 3357787038, -16.308958053588867, -88.42430877685547, 78.71947479248047, 9.804272651672363, -0.027527403086423874, 0.2574041783809662, 1.0963789224624634, -2.223264455795288, 0.627766489982605, 
303, 3357795371, -16.377939224243164, -88.4238052368164, 78.79298400878906, 9.825616836547852, -0.017011206597089767, 0.26050060987472534, 1.1105948686599731, -2.2486484050750732, 0.6663159132003784, 
304, 3357803704, -16.414926528930664, -88.4236831665039, 78.83484649658203, 9.829882621765137, -0.031534742563962936, 0.22861160337924957, 1.1715055704116821, -2.2338943481445312, 0.6229766011238098, 
305, 3357812037, -16.457569122314453, -88.42182922363281, 78.88282012939453, 9.825445175170898, -0.015828896313905716, 0.21534675359725952, 1.1854140758514404, -2.134434461593628, 0.6104768514633179, 
306, 3357820370, -16.510828018188477, -88.42108154296875, 78.94125366210938, 9.823506355285645, -0.01898159831762314, 0.2714962959289551, 1.1829293966293335, -2.2239818572998047, 0.6827347278594971, 
307, 3357828703, -16.590795516967773, -88.42132568359375, 79.02660369873047, 9.814678192138672, -0.015462640672922134, 0.21562671661376953, 1.250756025314331, -2.2884268760681152, 0.6982056498527527, 
308, 3357837036, -16.6363468170166, -88.42034149169922, 79.0777587890625, 9.839829444885254, -0.03267044946551323, 0.22636844217777252, 1.243225336074829, -2.184535503387451, 0.669620156288147, 
309, 3357845369, -16.718828201293945, -88.42082977294922, 79.16432189941406, 9.809326171875, -0.022071927785873413, 0.24222615361213684, 1.0973010063171387, -2.3412437438964844, 0.6860901117324829, 
310, 3357853702, -16.772369384765625, -88.42082977294922, 79.22257995605469, 9.826422691345215, -0.0373416393995285, 0.25062233209609985, 1.1095703840255737, -2.3293585777282715, 0.651715874671936, 
311, 3357862035, -16.84719467163086, -88.42021179199219, 79.30335235595703, 9.821524620056152, -0.014254378154873848, 0.22304251790046692, 1.2290350198745728, -2.3245174884796143, 0.6663414835929871, 
312, 3357870368, -16.90111541748047, -88.42120361328125, 79.3620834350586, 9.82484245300293, -0.02236628159880638, 0.26102498173713684, 1.1552404165267944, -2.3853766918182373, 0.6371156573295593, 
313, 3357878701, -17.003582000732422, -88.42132568359375, 79.46891021728516, 9.808489799499512, -0.013283669017255306, 0.24314679205417633, 1.0980693101882935, -2.3829689025878906, 0.7428768873214722, 
314, 3357887034, -17.104299545288086, -88.42182922363281, 79.57463073730469, 9.809618949890137, -0.02232307195663452, 0.19418589770793915, 1.1954803466796875, -2.372467041015625, 0.8024299740791321, 
315, 3357895367, -17.207157135009766, -88.42306518554688, 79.68260955810547, 9.831189155578613, -0.029258202761411667, 0.2364215850830078, 1.1475818157196045, -2.503048896789551, 0.7077085375785828, 
316, 3357903700, -17.27599334716797, -88.42405700683594, 79.75627899169922, 9.814653396606445, -0.010596221312880516, 0.2372511774301529, 1.1741693019866943, -2.4404730796813965, 0.670695960521698, 
317, 3357912033, -17.3728084564209, -88.4239273071289, 79.85918426513672, 9.837998390197754, -0.03488864749670029, 0.23663726449012756, 1.2840288877487183, -2.3143744468688965, 0.750433087348938, 
318, 3357920366, -17.440532684326172, -88.42455291748047, 79.93260192871094, 9.819294929504395, -0.03688472881913185, 0.24310028553009033, 1.2700178623199463, -2.3787426948547363, 0.6873451471328735, 
319, 3357928699, -17.534622192382812, -88.42467498779297, 80.03196716308594, 9.814669609069824, -0.019457949325442314, 0.25104936957359314, 1.1893073320388794, -2.374465227127075, 0.7208742499351501, 
320, 3357937032, -17.604284286499023, -88.42542266845703, 80.10697937011719, 9.834815979003906, -0.029121555387973785, 0.2266666293144226, 1.2017046213150024, -2.399643898010254, 0.6857057809829712, 
321, 3357945365, -17.693578720092773, -88.42555236816406, 80.20146179199219, 9.800520896911621, -0.015782557427883148, 0.20061835646629333, 1.2152289152145386, -2.3495423793792725, 0.7128569483757019, 
322, 3357953698, -17.76689338684082, -88.4236831665039, 80.27973937988281, 9.825862884521484, -0.032751310616731644, 0.25697705149650574, 1.172402024269104, -2.073446750640869, 0.8017127513885498, 
323, 3357962031, -17.86092758178711, -88.42157745361328, 80.37906646728516, 9.805824279785156, -0.024959612637758255, 0.2650173604488373, 1.2094402313232422, -2.106079578399658, 0.8076552748680115, 
324, 3357970364, -17.91141700744629, -88.41996002197266, 80.43437194824219, 9.834197998046875, -0.013473572209477425, 0.24557851254940033, 1.1639747619628906, -2.0698094367980957, 0.725740909576416, 
325, 3357978697, -18.015180587768555, -88.41761016845703, 80.54345703125, 9.823786735534668, -0.028038091957569122, 0.23018187284469604, 1.196632981300354, -2.133793830871582, 0.8332182765007019, 
326, 3357987030, -18.08148765563965, -88.41761016845703, 80.61448669433594, 9.827616691589355, -0.014894727617502213, 0.24936483800411224, 1.1512447595596313, -2.270266532897949, 0.7166223526000977, 
327, 3357995363, -18.153850555419922, -88.41564178466797, 80.69185638427734, 9.816699981689453, -0.029160551726818085, 0.2476765364408493, 1.198554277420044, -2.0918891429901123, 0.7393165230751038, 
328, 3358003696, -18.20366668701172, -88.4146499633789, 80.74679565429688, 9.816478729248047, -0.04840108007192612, 0.2467600405216217, 1.1756037473678589, -2.187558174133301, 0.6869609951972961, 
329, 3358012029, -18.280298233032227, -88.41390228271484, 80.82913208007812, 9.826506614685059, -0.03877416253089905, 0.19730834662914276, 1.2569289207458496, -2.281357526779175, 0.6937743425369263, 
330, 3358020362, -18.311798095703125, -88.41403198242188, 80.86617279052734, 9.838639259338379, -0.022916119545698166, 0.2529868185520172, 1.2274727821350098, -2.264247179031372, 0.5998982191085815, 
331, 3358028695, -18.36687469482422, -88.41390228271484, 80.9259262084961, 9.81139087677002, -0.026374366134405136, 0.2726719081401825, 1.1296517848968506, -2.294856548309326, 0.61296147108078, 
332, 3358037028, -18.383731842041016, -88.41427612304688, 80.9478988647461, 9.829194068908691, -0.032938152551651, 0.22602708637714386, 1.1722737550735474, -2.321699857711792, 0.5258473753929138, 
333, 3358045361, -18.42965316772461, -88.4146499633789, 80.99879455566406, 9.82889461517334, -0.03047395870089531, 0.2297987937927246, 1.182596206665039, -2.2991080284118652, 0.5812766551971436, 
334, 3358053694, -18.496442794799805, -88.4148941040039, 81.07024383544922, 9.805597305297852, -0.014739185571670532, 0.23203392326831818, 1.1757830381393433, -2.3133749961853027, 0.7048909068107605, 
335, 3358062027, -18.582794189453125, -88.41390228271484, 81.16172790527344, 9.822160720825195, -0.016025686636567116, 0.261973112821579, 1.1271928548812866, -2.289707899093628, 0.7235893607139587, 
336, 3358070360, -18.632795333862305, -88.41365814208984, 81.21639251708984, 9.847407341003418, -0.027228891849517822, 0.23854415118694305, 1.1446616649627686, -2.2690112590789795, 0.6597073674201965, 
337, 3358078693, -18.714111328125, -88.41329193115234, 81.30281829833984, 9.821026802062988, -0.034276001155376434, 0.23722988367080688, 1.1646409034729004, -2.3250555992126465, 0.6972066760063171, 
338, 3358087026, -18.767810821533203, -88.41304016113281, 81.36157989501953, 9.813958168029785, -0.02044677548110485, 0.2211133986711502, 1.1458399295806885, -2.269523859024048, 0.6721303462982178, 
339, 3358095359, -18.81995391845703, -88.41267395019531, 81.41922760009766, 9.84706974029541, -0.025625452399253845, 0.2314959317445755, 1.2389477491378784, -2.275491714477539, 0.6141653060913086, 
340, 3358103692, -18.85744857788086, -88.41218566894531, 81.46102142333984, 9.786066055297852, -0.023166466504335403, 0.2373366355895996, 1.123939871788025, -2.1983163356781006, 0.6395490169525146, 
341, 3358112025, -18.896459579467773, -88.41205596923828, 81.50486755371094, 9.825401306152344, -0.012053234502673149, 0.2526022791862488, 1.1789336204528809, -2.234867572784424, 0.5807130932807922, 
342, 3358120358, -18.931419372558594, -88.41094970703125, 81.54454040527344, 9.815216064453125, -0.04819202423095703, 0.2520935833454132, 1.1375154256820679, -2.15610408782959, 0.6458245515823364, 
343, 3358128691, -18.987348556518555, -88.40910339355469, 81.60513305664062, 9.815177917480469, -0.01582646369934082, 0.24006566405296326, 1.118996262550354, -2.12634015083313, 0.6768433451652527, 
344, 3358137024, -19.045358657836914, -88.40996551513672, 81.66854858398438, 9.811784744262695, -0.019625620916485786, 0.24116601049900055, 1.2529587745666504, -2.360736131668091, 0.6611674427986145, 
345, 3358145357, -19.117525100708008, -88.40971374511719, 81.74632263183594, 9.830355644226074, -0.01652688719332218, 0.24492380023002625, 1.182801365852356, -2.360684871673584, 0.6539443135261536, 
346, 3358153690, -19.167959213256836, -88.40971374511719, 81.80211639404297, 9.816908836364746, -0.014884501695632935, 0.2568303644657135, 1.2572362422943115, -2.262864112854004, 0.6676478385925293, 
347, 3358162023, -19.209674835205078, -88.40885925292969, 81.84955596923828, 9.84543514251709, -0.027884015813469887, 0.25903093814849854, 1.2268579006195068, -2.250415563583374, 0.5877314209938049, 
348, 3358170356, -19.2300968170166, -88.40848541259766, 81.87474060058594, 9.799181938171387, -0.04253973066806793, 0.2342156171798706, 1.119867205619812, -2.2337663173675537, 0.5676242709159851, 
349, 3358178689, -19.28272819519043, -88.40824127197266, 81.93193817138672, 9.810300827026367, -0.01550312153995037, 0.25261011719703674, 1.15086030960083, -2.2324085235595703, 0.6310451030731201, 
350, 3358187022, -19.30427360534668, -88.40762329101562, 81.95849609375, 9.830696105957031, -0.02272844687104225, 0.20724274218082428, 1.195480465888977, -2.186610698699951, 0.5912662148475647, 
351, 3358195355, -19.37346649169922, -88.40713500976562, 82.03309631347656, 9.814170837402344, -0.03876858949661255, 0.26445508003234863, 1.1891793012619019, -2.2819979190826416, 0.6736671924591064, 
352, 3358203688, -19.411128997802734, -88.4061508178711, 82.07456970214844, 9.814702987670898, -0.03145350143313408, 0.21603800356388092, 1.0575733184814453, -2.1709601879119873, 0.6498715281486511, 
353, 3358212021, -19.479068756103516, -88.4051742553711, 82.14805603027344, 9.844257354736328, -0.014080194756388664, 0.22412879765033722, 1.2184820175170898, -2.2526180744171143, 0.6811208724975586, 
354, 3358220354, -19.540912628173828, -88.4046859741211, 82.21439361572266, 9.815000534057617, -0.02370249293744564, 0.19451871514320374, 1.1007332801818848, -2.253950357437134, 0.7076060175895691, 
355, 3358228687, -19.60256576538086, -88.40382385253906, 82.28065490722656, 9.817344665527344, -0.02058369107544422, 0.22939880192279816, 1.0959949493408203, -2.20884370803833, 0.6723865866661072, 
356, 3358237020, -19.656829833984375, -88.40357971191406, 82.33954620361328, 9.814973831176758, -0.04871091619133949, 0.230088472366333, 1.1736315488815308, -2.255897045135498, 0.6811721324920654, 
357, 3358245353, -19.70252799987793, -88.40320587158203, 82.39018249511719, 9.829249382019043, -0.02720436453819275, 0.2552369236946106, 1.1489393711090088, -2.277617931365967, 0.5937508344650269, 
358, 3358253686, -19.71795082092285, -88.40283966064453, 82.40924835205078, 9.81503963470459, -0.044237662106752396, 0.2677142322063446, 1.0203301906585693, -2.225902795791626, 0.5500272512435913, 
359, 3358262019, -19.789169311523438, -88.40382385253906, 82.48452758789062, 9.822563171386719, -0.027090823277831078, 0.2202090322971344, 1.0727882385253906, -2.4160373210906982, 0.6340163946151733, 
360, 3358270352, -19.835304260253906, -88.4048080444336, 82.5347671508789, 9.823866844177246, -0.04970414564013481, 0.1854102462530136, 1.0509393215179443, -2.366960287094116, 0.6091706156730652, 
361, 3358278685, -19.891643524169922, -88.40406799316406, 82.59514617919922, 9.855389595031738, -0.04826688393950462, 0.24596558511257172, 1.0472251176834106, -2.2814340591430664, 0.6295594573020935, 
362, 3358287018, -19.887765884399414, -88.40308380126953, 82.59528350830078, 9.7932710647583, -0.0163250919431448, 0.2468073070049286, 1.0557804107666016, -2.1175801753997803, 0.5217491984367371, 
363, 3358295351, -19.934263229370117, -88.4013671875, 82.64635467529297, 9.82370376586914, -0.03292158618569374, 0.23577001690864563, 1.1317265033721924, -2.109792947769165, 0.6579143404960632, 
364, 3358303684, -19.913103103637695, -88.39990234375, 82.62965393066406, 9.836915016174316, -0.038051411509513855, 0.21999910473823547, 1.0968142747879028, -2.056182861328125, 0.4845316410064697, 
365, 3358312017, -19.916950225830078, -88.399169921875, 82.63802337646484, 9.800738334655762, -0.039275504648685455, 0.24059052765369415, 1.1310094594955444, -2.1423234939575195, 0.49544334411621094, 
366, 3358320350, -19.91743278503418, -88.39745330810547, 82.64306640625, 9.817306518554688, -0.020611807703971863, 0.24402831494808197, 1.098940372467041, -2.0629451274871826, 0.5578653216362, 
367, 3358328683, -19.919902801513672, -88.3956298828125, 82.65059661865234, 9.818968772888184, -0.039375364780426025, 0.22855481505393982, 1.1534730195999146, -2.0864076614379883, 0.5114266276359558, 
368, 3358337016, -19.941926956176758, -88.3931884765625, 82.6771240234375, 9.836496353149414, -0.016538212075829506, 0.2524985671043396, 1.1449692249298096, -1.9703751802444458, 0.6715155839920044, 
369, 3358345349, -20.00893783569336, -88.39075469970703, 82.74886322021484, 9.820906639099121, -0.027929475530982018, 0.23392319679260254, 1.1486319303512573, -2.018683433532715, 0.7690801620483398, 
370, 3358353682, -20.073192596435547, -88.38990783691406, 82.81820678710938, 9.828886032104492, -0.022972507402300835, 0.22062532603740692, 1.191868782043457, -2.2064356803894043, 0.7386761903762817, 
371, 3358362015, -20.15304183959961, -88.3879623413086, 82.90355682373047, 9.83460521697998, -0.014707992784678936, 0.2528764605522156, 1.2375646829605103, -2.1266729831695557, 0.7795564532279968, 
372, 3358370348, -20.237308502197266, -88.38687133789062, 82.99307250976562, 9.795378684997559, -0.02460450492799282, 0.2590397298336029, 1.220300555229187, -2.2155802249908447, 0.8091408610343933, 
373, 3358378681, -20.360462188720703, -88.38565826416016, 83.12220764160156, 9.797822952270508, -0.022844986990094185, 0.2542349100112915, 1.2868462800979614, -2.2551026344299316, 0.890619695186615, 
374, 3358387014, -20.461017608642578, -88.38529205322266, 83.22775268554688, 9.8109769821167, -0.031220387667417526, 0.24527038633823395, 1.1771405935287476, -2.296316146850586, 0.8375471234321594, 
375, 3358395347, -20.57562828063965, -88.38359832763672, 83.34842681884766, 9.81806755065918, -0.026241695508360863, 0.2680058777332306, 1.268532156944275, -2.2360973358154297, 0.8685916066169739, 
376, 3358403680, -20.67894172668457, -88.38383483886719, 83.45718383789062, 9.788825035095215, -0.037901293486356735, 0.261415034532547, 1.2046246528625488, -2.392138957977295, 0.8109082579612732, 
377, 3358412013, -20.80879020690918, -88.38432312011719, 83.59202575683594, 9.794281005859375, -0.005560619290918112, 0.24709247052669525, 1.1721203327178955, -2.48447847366333, 0.8268916606903076, 
378, 3358420346, -20.93398666381836, -88.3882064819336, 83.72156524658203, 9.785063743591309, -0.046619344502687454, 0.26280564069747925, 1.118560791015625, -2.8154139518737793, 0.7281742691993713, 
379, 3358428679, -21.071306228637695, -88.39197540283203, 83.86292266845703, 9.779256820678711, -0.029397085309028625, 0.2282656878232956, 1.0313700437545776, -2.830885171890259, 0.7162892818450928, 
380, 3358437012, -21.22564125061035, -88.3970947265625, 84.02149963378906, 9.792738914489746, -0.009685682132840157, 0.2676410675048828, 1.10165536403656, -2.990999698638916, 0.7580916285514832, 
381, 3358445345, -21.39490509033203, -88.40357971191406, 84.1944808959961, 9.802409172058105, -0.04053135961294174, 0.24425892531871796, 1.010494589805603, -3.1603612899780273, 0.6954137086868286, 
382, 3358453678, -21.540254592895508, -88.41045379638672, 84.3445816040039, 9.809403419494629, -0.02290138229727745, 0.23337265849113464, 1.145250916481018, -3.1649463176727295, 0.651638925075531, 
383, 3358462011, -21.727148056030273, -88.41637420654297, 84.5358657836914, 9.82289981842041, -0.01452267449349165, 0.23357367515563965, 1.0647965669631958, -3.1966311931610107, 0.7369087934494019, 
384, 3358470344, -21.924589157104492, -88.42144775390625, 84.73875427246094, 9.818684577941895, 0.008931506425142288, 0.2503668963909149, 1.1927653551101685, -3.079061985015869, 0.8619574904441833, 
385, 3358478677, -22.18315315246582, -88.42579650878906, 85.0020751953125, 9.842174530029297, -0.024052320048213005, 0.23716041445732117, 1.1704041957855225, -3.025400161743164, 1.0562671422958374, 
386, 3358487010, -22.457433700561523, -88.42953491210938, 85.28238677978516, 9.81087875366211, -0.027333920821547508, 0.23745569586753845, 1.2679944038391113, -3.009544849395752, 1.1552661657333374, 
387, 3358495343, -22.709789276123047, -88.43364715576172, 85.54021453857422, 9.824790000915527, -0.03772725909948349, 0.22768370807170868, 1.2951453924179077, -2.9660263061523438, 1.05319344997406, 
388, 3358503676, -22.974620819091797, -88.4365234375, 85.8103256225586, 9.8231201171875, -0.02888730727136135, 0.22851431369781494, 1.1310094594955444, -2.9397971630096436, 1.1386936902999878, 
389, 3358512009, -23.237464904785156, -88.43903350830078, 86.07813262939453, 9.836421966552734, -0.05822630226612091, 0.2294752597808838, 1.1820584535598755, -2.8352906703948975, 1.1343648433685303, 
390, 3358520342, -23.44310760498047, -88.44041442871094, 86.29011535644531, 9.85965633392334, -0.0429353266954422, 0.23446956276893616, 1.3038030862808228, -2.6882143020629883, 1.0360318422317505, 
391, 3358528675, -23.62569236755371, -88.44041442871094, 86.4784927368164, 9.84975528717041, -0.043099820613861084, 0.21912099421024323, 1.2836958169937134, -2.500102996826172, 0.9932560324668884, 
392, 3358537008, -23.796375274658203, -88.43915557861328, 86.65533447265625, 9.850447654724121, -0.02723357081413269, 0.16220839321613312, 1.2895870208740234, -2.3200862407684326, 1.072224736213684, 
393, 3358545341, -23.918434143066406, -88.43589782714844, 86.78282165527344, 9.82855224609375, -0.013249549083411694, 0.19901864230632782, 1.254341959953308, -2.0280072689056396, 0.9877233505249023, 
394, 3358553674, -24.02937126159668, -88.43077087402344, 86.90017700195312, 9.847818374633789, -0.028318634256720543, 0.18447454273700714, 1.3245760202407837, -1.839845061302185, 1.0740432739257812, 
395, 3358562007, -24.107433319091797, -88.42455291748047, 86.98432159423828, 9.829789161682129, -0.042704276740550995, 0.19199466705322266, 1.2773691415786743, -1.7094939947128296, 0.9765042662620544, 
396, 3358570340, -24.139127731323242, -88.41983795166016, 87.02281188964844, 9.793338775634766, -0.040950410068035126, 0.2104717493057251, 1.3780585527420044, -1.7599027156829834, 0.8307592272758484, 
397, 3358578673, -24.20220947265625, -88.4146499633789, 87.0921401977539, 9.81999397277832, -0.031866367906332016, 0.2282208949327469, 1.3330800533294678, -1.7763727903366089, 0.8988674283027649, 
398, 3358587006, -24.24149513244629, -88.41267395019531, 87.13700866699219, 9.809228897094727, -0.0548933781683445, 0.23459216952323914, 1.2227083444595337, -2.096550703048706, 0.7026369571685791, 
399, 3358595339, -24.319150924682617, -88.41168975830078, 87.22074127197266, 9.807350158691406, -0.056539684534072876, 0.2548426389694214, 1.3201450109481812, -2.2098169326782227, 0.7584503889083862, 
400, 3358603672, -24.331832885742188, -88.41008758544922, 87.23927307128906, 9.79960823059082, -0.0280530396848917, 0.2643311619758606, 1.2870768308639526, -2.07226824760437, 0.6209018230438232, 
401, 3358612005, -24.389448165893555, -88.40996551513672, 87.30369567871094, 9.818273544311523, -0.05172980576753616, 0.21265850961208344, 1.412253499031067, -2.3007726669311523, 0.6480273008346558, 
402, 3358620338, -24.42197608947754, -88.40836334228516, 87.3420181274414, 9.814053535461426, -0.06001510098576546, 0.20305310189723969, 1.2714009284973145, -2.103773832321167, 0.6783289909362793, 
403, 3358628671, -24.44365882873535, -88.40737915039062, 87.3701171875, 9.844382286071777, -0.032684095203876495, 0.19677990674972534, 1.3293148279190063, -2.233996629714966, 0.5446227192878723, 
404, 3358637004, -24.43311882019043, -88.4060287475586, 87.36485290527344, 9.838726997375488, -0.04201161861419678, 0.20638637244701385, 1.2228362560272217, -2.0539541244506836, 0.541600227355957, 
405, 3358645337, -24.397098541259766, -88.40198516845703, 87.33595275878906, 9.829381942749023, -0.035993754863739014, 0.23059625923633575, 1.3864856958389282, -1.8081088066101074, 0.5288698673248291, 
406, 3358653670, -24.352048873901367, -88.39794921875, 87.29712677001953, 9.820365905761719, -0.05088520422577858, 0.2195812612771988, 1.350779414176941, -1.6918457746505737, 0.5840941667556763, 
407, 3358662003, -24.379261016845703, -88.3936767578125, 87.3298110961914, 9.823413848876953, -0.03564978018403053, 0.21875214576721191, 1.2092351913452148, -1.8338767290115356, 0.7436196208000183, 
408, 3358670336, -24.39828872680664, -88.39039611816406, 87.35400390625, 9.82153606414795, -0.03837171569466591, 0.23358465731143951, 1.177781105041504, -1.9590280055999756, 0.6923912763595581, 
409, 3358678669, -24.423921585083008, -88.3884506225586, 87.38569641113281, 9.854757308959961, -0.03919241577386856, 0.22402185201644897, 1.3366148471832275, -1.9935559034347534, 0.6715155839920044, 
410, 3358687002, -24.4345760345459, -88.38408660888672, 87.4027328491211, 9.816770553588867, -0.015062384307384491, 0.24330145120620728, 1.349626898765564, -1.8135392665863037, 0.7337582111358643, 
411, 3358695335, -24.470224380493164, -88.38093566894531, 87.44371795654297, 9.814706802368164, -0.02109740860760212, 0.2410648614168167, 1.2259868383407593, -1.9186855554580688, 0.7390859723091125, 
412, 3358703668, -24.482263565063477, -88.3765869140625, 87.46256256103516, 9.852893829345703, -0.037278734147548676, 0.1925223469734192, 1.3714756965637207, -1.8099275827407837, 0.7426719665527344, 
413, 3358712001, -24.511516571044922, -88.37201690673828, 87.49861907958984, 9.838554382324219, 0.00864438246935606, 0.20288170874118805, 1.4232423305511475, -1.7424085140228271, 0.8036594986915588, 
414, 3358720334, -24.6014404296875, -88.36553955078125, 87.595947265625, 9.925031661987305, -0.030543776229023933, 0.239813894033432, 1.4443227052688599, -1.713464379310608, 1.0821118354797363, 
415, 3358728667, -24.68802261352539, -88.35753631591797, 87.69210052490234, 9.890007972717285, -0.008955458179116249, 0.24117732048034668, 1.715603232383728, -1.5145697593688965, 1.1365933418273926, 
416, 3358737000, -24.825891494750977, -88.34957122802734, 87.84227752685547, 9.913534164428711, -0.03015153296291828, 0.17637565732002258, 2.056272506713867, -1.5443592071533203, 1.368786334991455, 
417, 3358745333, -25.009693145751953, -88.33587646484375, 88.04246520996094, 9.90311336517334, 0.01946732960641384, 0.1584218293428421, 2.5164575576782227, -1.0811256170272827, 1.7438299655914307, 
418, 3358753666, -25.196800231933594, -88.31600189208984, 88.24726867675781, 9.960943222045898, 0.03876728564500809, 0.1388607770204544, 2.726008176803589, -0.3489939570426941, 2.156705856323242, 
419, 3358761999, -25.452465057373047, -88.2863998413086, 88.52299499511719, 9.948471069335938, 0.01701444573700428, 0.16155652701854706, 2.9446253776550293, 0.5476195216178894, 2.8441660404205322, 
420, 3358770332, -25.62846565246582, -88.25437927246094, 88.71712493896484, 9.855271339416504, -0.06580561399459839, 0.2512611448764801, 2.7324111461639404, 0.8930786848068237, 2.7515194416046143, 
421, 3358778665, -25.76045799255371, -88.22392272949219, 88.86567687988281, 9.819343566894531, -0.06635486334562302, 0.26942822337150574, 2.537410259246826, 0.826994001865387, 2.5252177715301514, 
422, 3358786998, -25.857654571533203, -88.19561004638672, 88.97820281982422, 9.89500617980957, -0.03497607260942459, 0.2231711894273758, 2.4397175312042236, 0.6422385573387146, 2.3393354415893555, 
423, 3358795331, -26.054792404174805, -88.16666412353516, 89.19355010986328, 9.998697280883789, 0.021931177005171776, 0.22142669558525085, 2.7417092323303223, 0.5703136920928955, 2.723830461502075, 
424, 3358803664, -26.31220054626465, -88.1297836303711, 89.4731674194336, 10.048013687133789, -0.02929152175784111, 0.16580095887184143, 3.232503890991211, 1.2467857599258423, 3.3992526531219482, 
425, 3358811997, -26.594186782836914, -88.08480834960938, 89.77766418457031, 10.31761646270752, -0.0810701847076416, 0.06644044816493988, 3.281503677368164, 2.067542791366577, 3.934385061264038, 
426, 3358820330, -26.926233291625977, -88.03716278076172, 90.14070892333984, 9.778046607971191, -0.4190176725387573, 0.25040674209594727, 4.2656025886535645, 2.1996092796325684, 4.363705158233643, 
427, 3358828663, -27.200733184814453, -87.95953369140625, 90.44026947021484, 12.215113639831543, 0.636308491230011, -0.5318644642829895, 3.5720713138580322, 5.512990474700928, 5.815802097320557, 
428, 3358836996, -29.211767196655273, -87.79557800292969, 92.47492218017578, 14.227184295654297, 1.6045866012573242, -0.4121721386909485, 3.2422122955322266, 10.835477828979492, 17.741487503051758, 
429, 3358845329, -33.03307342529297, -87.41094207763672, 96.370361328125, 17.120515823364258, -1.8447654247283936, -1.3363441228866577, 9.065858840942383, 27.139583587646484, 41.00078582763672, 
430, 3358853662, -30.257444381713867, -87.026123046875, 93.60270690917969, 17.72086524963379, 0.6689842939376831, -1.3709383010864258, 1.934838891029358, 45.54541778564453, 11.005857467651367, 
431, 3358861995, -27.464054107666016, -86.52582550048828, 90.8176498413086, 12.531413078308105, -0.995080292224884, -0.20557443797588348, 2.117112874984741, 59.426231384277344, 12.977225303649902, 
432, 3358870328, -24.758209228515625, -86.0253677368164, 88.11856079101562, 11.153385162353516, 0.3735237121582031, 0.22184912860393524, 2.071596622467041, 60.95267105102539, 8.02695083618164, 
433, 3358878661, -22.509796142578125, -85.50098419189453, 85.8715591430664, 12.07742691040039, 0.06988118588924408, 0.045536406338214874, 1.480700135231018, 63.4000358581543, 7.426964282989502, 
434, 3358886994, -20.713600158691406, -84.93233489990234, 84.07666778564453, 11.964644432067871, 0.10682032257318497, 0.06914640963077545, 1.4712748527526855, 67.810546875, 8.911420822143555, 
435, 3358895327, -19.291828155517578, -84.32508850097656, 82.65673065185547, 12.115938186645508, 0.12216952443122864, 0.10713738203048706, 1.5519351959228516, 71.72177124023438, 10.396648406982422, 
436, 3358903660, -18.114843368530273, -83.67798614501953, 81.4822769165039, 12.199348449707031, -0.0016987973358482122, 0.16042661666870117, 1.6555719375610352, 76.04802703857422, 11.43478012084961, 
437, 3358911993, -17.160266876220703, -82.99263000488281, 80.53153991699219, 11.590920448303223, -0.07543684542179108, 0.36021462082862854, 1.8139979839324951, 80.18519592285156, 12.758665084838867, 
438, 3358920326, -16.380287170410156, -82.28319549560547, 79.7605209350586, 11.280869483947754, -0.15521225333213806, 0.4643633961677551, 2.40674090385437, 82.69139099121094, 13.687959671020508, 
439, 3358928659, -15.730523109436035, -81.54989624023438, 79.12480926513672, 11.170258522033691, -0.22904053330421448, 0.5286552309989929, 3.024740695953369, 85.32122802734375, 14.484036445617676, 
440, 3358936992, -15.133076667785645, -80.79476928710938, 78.54622650146484, 11.109002113342285, -0.5030288100242615, 0.5563031435012817, 3.6676130294799805, 87.95953369140625, 14.324952125549316, 
441, 3358945325, -14.520814895629883, -80.01834106445312, 77.95878601074219, 10.909066200256348, -0.7320355176925659, 0.6780072450637817, 4.539759635925293, 90.8583755493164, 12.93539810180664, 
442, 3358953658, -13.92396068572998, -79.22183227539062, 77.39424896240234, 10.917311668395996, -0.6352420449256897, 0.7957079410552979, 5.564031600952148, 93.42333221435547, 12.133262634277344, 
443, 3358961991, -13.338149070739746, -78.4046630859375, 76.84410858154297, 10.64972972869873, -0.5390790104866028, 0.9307084679603577, 6.113770484924316, 96.10879516601562, 11.11678409576416, 
444, 3358970324, -12.744667053222656, -77.57173156738281, 76.28716278076172, 10.331607818603516, -0.6860418915748596, 1.0097177028656006, 6.426449298858643, 98.28469848632812, 9.48458480834961, 
445, 3358978657, -12.163585662841797, -76.72438049316406, 75.742431640625, 10.20273208618164, -0.600930392742157, 1.1184563636779785, 6.575450420379639, 100.22258758544922, 8.182245254516602, 
446, 3358986990, -11.601531028747559, -75.86354064941406, 75.21369171142578, 9.820262908935547, -0.5805418491363525, 1.308314323425293, 6.379910945892334, 101.95012664794922, 7.038459300994873, 
447, 3358995323, -11.040590286254883, -74.99469757080078, 74.6854248046875, 9.709372520446777, -0.7033227682113647, 1.4464277029037476, 6.545100688934326, 103.17040252685547, 5.281846523284912, 
448, 3359003656, -10.482982635498047, -74.12068939208984, 74.15929412841797, 9.419027328491211, -0.8602374792098999, 1.6804276704788208, 6.635827541351318, 103.94721984863281, 3.5502822399139404, 
449, 3359011989, -9.951067924499512, -73.24977111816406, 73.66090393066406, 8.532280921936035, -0.941528856754303, 2.025437593460083, 7.01315450668335, 103.64044189453125, 2.4562366008758545, 
450, 3359020322, -9.482335090637207, -72.39805603027344, 73.23030090332031, 7.880618095397949, -0.5826494693756104, 2.3294715881347656, 7.4526190757751465, 101.0832748413086, 2.6872262954711914, 
451, 3359028655, -9.056967735290527, -71.55810546875, 72.83950805664062, 8.551298141479492, -0.39877405762672424, 2.3291008472442627, 7.020730972290039, 99.6131591796875, 2.363049030303955, 
452, 3359036988, -8.70740795135498, -70.7296371459961, 72.5315933227539, 7.718461513519287, -0.4283377230167389, 2.497893810272217, 7.557506084442139, 97.83597564697266, 4.029653072357178, 
453, 3359045321, -8.394201278686523, -69.91715240478516, 72.264892578125, 8.023387908935547, -0.38269296288490295, 2.6391119956970215, 8.037313461303711, 95.8326187133789, 4.294223308563232, 
454, 3359053654, -8.103397369384766, -69.1157455444336, 72.0220947265625, 7.960691452026367, -0.2511444687843323, 2.7924606800079346, 8.178547859191895, 94.40628051757812, 4.185718536376953, 
455, 3359061987, -7.850385665893555, -68.32941436767578, 71.81803131103516, 7.703165531158447, -0.21664950251579285, 3.0562734603881836, 8.129085540771484, 92.49055480957031, 4.745163440704346, 
456, 3359070320, -7.628754615783691, -67.5634536743164, 71.64137268066406, 7.008663654327393, -0.2154075652360916, 3.2986416816711426, 7.525658130645752, 89.92102813720703, 4.9719767570495605, 
457, 3359078653, -7.461217403411865, -66.82984161376953, 71.52503967285156, 6.744044303894043, -0.22806455194950104, 3.540700674057007, 7.81015157699585, 85.77989959716797, 6.642083168029785, 
458, 3359086986, -7.312077045440674, -66.1238021850586, 71.43192291259766, 6.035043716430664, -0.0018786413129419088, 3.7739129066467285, 8.227534294128418, 82.36087799072266, 6.947275638580322, 
459, 3359095319, -7.201033592224121, -65.46624755859375, 71.36280822753906, 6.759469509124756, 0.017279792577028275, 3.9805123805999756, 6.348175525665283, 76.51139068603516, 7.048344135284424, 
460, 3359103652, -7.134790897369385, -64.84436798095703, 71.33576202392578, 5.986413478851318, 0.0937424749135971, 4.136690616607666, 5.582149028778076, 71.98246002197266, 8.438712120056152, 
461, 3359111985, -7.105920791625977, -64.26869201660156, 71.34300994873047, 5.8591179847717285, 0.08515916019678116, 4.416183948516846, 4.833566188812256, 66.301513671875, 9.384516716003418, 
462, 3359120318, -7.1093010902404785, -63.74338150024414, 71.37092590332031, 5.578013896942139, 0.19155016541481018, 4.522521495819092, 3.184410572052002, 60.142051696777344, 9.738781929016113, 
463, 3359128651, -7.151763916015625, -63.26974868774414, 71.43527221679688, 5.294365882873535, -0.014828456565737724, 4.710931301116943, 2.395359754562378, 53.758949279785156, 10.926177978515625, 
464, 3359136984, -7.220730304718018, -62.852596282958984, 71.52205657958984, 5.204452991485596, 0.0295926034450531, 4.837678909301758, 1.5884826183319092, 46.84331130981445, 11.423547744750977, 
465, 3359145317, -7.3006815910339355, -62.49375915527344, 71.60862731933594, 5.325492858886719, -0.1561209261417389, 4.911890983581543, 0.21893802285194397, 39.90159606933594, 10.628937721252441, 
466, 3359153650, -7.403429985046387, -62.188846588134766, 71.72020721435547, 5.267734050750732, -0.5258835554122925, 4.982770919799805, 0.10692674666643143, 33.26177215576172, 11.32602596282959, 
467, 3359161983, -7.515493869781494, -61.94267272949219, 71.83830261230469, 5.345452308654785, -0.4713228940963745, 5.0711989402771, -0.34282106161117554, 26.204593658447266, 10.876795768737793, 
468, 3359170316, -7.63124418258667, -61.75172805786133, 71.95658874511719, 5.449779987335205, -0.6254698634147644, 5.154750823974609, -0.7979350090026855, 19.597471237182617, 10.13792610168457, 
469, 3359178649, -7.745791435241699, -61.61248779296875, 72.0740966796875, 5.85070276260376, -0.6327212452888489, 5.101360321044922, -0.7471418380737305, 13.434094429016113, 9.323185920715332, 
470, 3359186982, -7.8645148277282715, -61.51683044433594, 72.19666290283203, 6.386373519897461, -0.46359458565711975, 5.023058891296387, -0.7346417903900146, 8.188268661499023, 8.977570533752441, 
471, 3359195315, -7.988264083862305, -61.456581115722656, 72.32215881347656, 6.955172061920166, -0.44880783557891846, 4.885818958282471, -1.0308706760406494, 3.932720422744751, 8.576147079467773, 
472, 3359203648, -8.111104011535645, -61.41712951660156, 72.44742584228516, 7.538658618927002, -0.6467444896697998, 4.74971342086792, -0.9605081677436829, 1.4456290006637573, 8.259885787963867, 
473, 3359211981, -8.22455883026123, -61.3912239074707, 72.56253814697266, 7.848109722137451, -0.6181386113166809, 4.726809024810791, -0.8995590806007385, -0.1006767526268959, 7.444342136383057, 
474, 3359220314, -8.334527015686035, -61.37450408935547, 72.67416381835938, 8.092899322509766, -0.6203057169914246, 4.704539775848389, -0.8616628646850586, -1.172645092010498, 7.115698337554932, 
475, 3359228647, -8.433505058288574, -61.36503601074219, 72.77265167236328, 8.208817481994629, -0.6709104776382446, 4.713767051696777, -0.9148380160331726, -1.9444276094436646, 6.228959083557129, 
476, 3359236980, -8.517322540283203, -61.36345291137695, 72.85266876220703, 8.048047065734863, -0.84583979845047, 4.722200870513916, -1.0558444261550903, -2.7253036499023438, 5.058670997619629, 
477, 3359245313, -8.59110164642334, -61.37470245361328, 72.92415618896484, 7.810286521911621, -0.8086183071136475, 4.781193256378174, -0.741557776927948, -4.19192361831665, 4.319546699523926, 
478, 3359253646, -8.660089492797852, -61.40114212036133, 72.99114990234375, 8.083412170410156, -0.7080059051513672, 4.679945468902588, -0.6421232223510742, -5.948368072509766, 3.810591220855713, 
479, 3359261979, -8.732094764709473, -61.43083953857422, 73.06202697753906, 8.591257095336914, -0.5241079330444336, 4.528115272521973, -0.5907027125358582, -6.382875442504883, 3.941826105117798, 
480, 3359270312, -8.812686920166016, -61.4571533203125, 73.14090728759766, 8.650653839111328, -0.43319934606552124, 4.550304889678955, -0.7779555916786194, -6.045702934265137, 4.470312118530273, 
481, 3359278645, -8.901199340820312, -61.47800827026367, 73.22715759277344, 8.817294120788574, -0.475822776556015, 4.520995616912842, -0.9428600072860718, -5.4808573722839355, 4.958672523498535, 
482, 3359286978, -8.996875762939453, -61.49272155761719, 73.32071685791016, 8.82751178741455, -0.44593584537506104, 4.517396450042725, -1.0385804176330566, -4.812095642089844, 5.499363422393799, 
483, 3359295311, -9.105965614318848, -61.503334045410156, 73.42777252197266, 8.684514045715332, -0.3832031488418579, 4.538629531860352, -1.212219476699829, -4.463127613067627, 6.319635391235352, 
484, 3359303644, -9.218427658081055, -61.50971221923828, 73.53565979003906, 8.904597282409668, -0.5939668416976929, 4.4944658279418945, -1.5401586294174194, -3.9750735759735107, 6.455313682556152, 
485, 3359311977, -9.329758644104004, -61.50751495361328, 73.6424560546875, 8.854436874389648, -0.7674668431282043, 4.501772403717041, -1.5162091255187988, -2.975196123123169, 6.532668113708496, 
486, 3359320310, -9.427314758300781, -61.50296401977539, 73.73776245117188, 8.642013549804688, -0.9453915953636169, 4.564813613891602, -1.0789740085601807, -2.5849881172180176, 5.951582908630371, 
487, 3359328643, -9.51066780090332, -61.495506286621094, 73.830078125, 8.782819747924805, -1.1638290882110596, 4.434779644012451, 0.3187563717365265, -2.229386568069458, 5.824049949645996, 
488, 3359336976, -9.561439514160156, -61.48455810546875, 73.88128662109375, 9.025343894958496, -0.9069589972496033, 4.479116916656494, -0.11482859402894974, -1.4232292175292969, 3.5905134677886963, 
489, 3359345309, -9.576693534851074, -61.46371841430664, 73.89983367919922, 9.106317520141602, -1.4293608665466309, 4.40762186050415, 0.707273006439209, 0.04691247269511223, 1.9259470701217651, 
490, 3359353642, -9.55051040649414, -61.43524932861328, 73.87964630126953, 9.117100715637207, -1.3272771835327148, 4.442368507385254, 1.5911434888839722, 1.3272656202316284, -0.09459337592124939, 
491, 3359361975, -9.472932815551758, -61.39905548095703, 73.80874633789062, 9.0812349319458, -1.4745993614196777, 4.454168319702148, 2.4242210388183594, 2.7158901691436768, -2.836033821105957, 
492, 3359370308, -9.352202415466309, -61.3591194152832, 73.69773864746094, 8.746952056884766, -1.2262787818908691, 4.56268835067749, 3.3695907592773438, 3.535827159881592, -5.033965110778809, 
493, 3359378641, -9.202035903930664, -61.31744384765625, 73.5581283569336, 8.570385932922363, -1.059465765953064, 4.581521987915039, 3.9068243503570557, 3.9900193214416504, -6.6685638427734375, 
494, 3359386974, -9.017704010009766, -61.27907180786133, 73.38622283935547, 8.324907302856445, -1.1789313554763794, 4.645583152770996, 4.601431369781494, 3.881363868713379, -8.572931289672852, 
495, 3359395307, -8.801629066467285, -61.25174331665039, 73.18370056152344, 7.699879169464111, -1.0589301586151123, 4.808487892150879, 5.2053632736206055, 2.8088440895080566, -10.580011367797852, 
496, 3359403640, -8.563911437988281, -61.24433898925781, 72.96178436279297, 7.4763617515563965, -0.990425705909729, 4.852875709533691, 5.755148410797119, 0.5781005620956421, -12.051139831542969, 
497, 3359411973, -8.31796932220459, -61.254032135009766, 72.73509979248047, 7.541759014129639, -0.7537497878074646, 4.769615650177002, 6.252705097198486, -1.471179485321045, -12.65983772277832, 
498, 3359420306, -8.081663131713867, -61.2778434753418, 72.51739501953125, 7.654473781585693, -0.45849403738975525, 4.708607196807861, 6.025122165679932, -3.27139949798584, -12.359639167785645, 
499, 3359428639, -7.864579677581787, -61.31291580200195, 72.31938171386719, 7.614633083343506, -0.1468549519777298, 4.737372398376465, 5.791494846343994, -4.830128192901611, -11.432967185974121, 
500, 3359436972, -7.672518730163574, -61.36012649536133, 72.1427230834961, 7.508742809295654, -0.1031537875533104, 4.7494587898254395, 5.0250396728515625, -6.473665237426758, -10.362546920776367, 
501, 3359445305, -7.510006427764893, -61.42125701904297, 71.99568939208984, 7.569560527801514, -0.049696337431669235, 4.705257415771484, 4.597179889678955, -8.400779724121094, -8.888115882873535, 
502, 3359453638, -7.377078056335449, -61.49407196044922, 71.87532806396484, 7.655673980712891, 0.059343572705984116, 4.732409477233887, 3.8416876792907715, -10.003384590148926, -7.496365547180176, 
503, 3359461971, -7.278756141662598, -61.57979202270508, 71.78815460205078, 7.436777591705322, 0.08533768355846405, 4.776666164398193, 3.187115430831909, -11.81525707244873, -5.799498558044434, 
504, 3359470304, -7.211902141571045, -61.68197250366211, 71.72976684570312, 7.624508857727051, 0.020462311804294586, 4.657149314880371, 2.436004161834717, -13.978460311889648, -4.3694562911987305, 
505, 3359478637, -7.175902843475342, -61.793601989746094, 71.700439453125, 7.664092540740967, -0.06562583893537521, 4.707876205444336, 1.8080452680587769, -15.33104419708252, -2.87355899810791, 
506, 3359486970, -7.163093566894531, -61.92032241821289, 71.6924057006836, 7.4624505043029785, -0.16240037977695465, 4.757719993591309, 1.2629486322402954, -17.265329360961914, -1.8694552183151245, 
507, 3359495303, -7.1713690757751465, -62.06309509277344, 71.70423889160156, 7.511170387268066, -0.26453831791877747, 4.698622703552246, 0.8414406776428223, -19.334707260131836, -1.014861822128296, 
508, 3359503636, -7.187434673309326, -62.22178649902344, 71.72313690185547, 7.675781726837158, -0.4262629747390747, 4.621310710906982, 0.6551739573478699, -21.260618209838867, -0.8483437895774841, 
509, 3359511969, -7.197299003601074, -62.39574432373047, 71.73481750488281, 7.6566338539123535, -0.6717133522033691, 4.591291427612305, 0.6425461769104004, -23.04741668701172, -1.5034794807434082, 
510, 3359520302, -7.197750091552734, -62.587825775146484, 71.73831939697266, 7.464086055755615, -0.5599212050437927, 4.66114616394043, 0.8967676758766174, -25.125707626342773, -2.215017795562744, 
511, 3359528635, -7.187862396240234, -62.80217742919922, 71.72924041748047, 7.244036674499512, -0.5587307810783386, 4.662621974945068, 0.7967185974121094, -27.7179012298584, -3.257723331451416, 
512, 3359536968, -7.172011375427246, -63.042755126953125, 71.71288299560547, 6.980325222015381, -0.5073893070220947, 4.6730217933654785, 0.7310180068016052, -30.769432067871094, -4.01669979095459, 
513, 3359545301, -7.164355278015137, -63.310630798339844, 71.70423126220703, 6.9781718254089355, -0.2553403079509735, 4.615403652191162, 0.5766410827636719, -34.09263229370117, -4.013011932373047, 
514, 3359553634, -7.17792272567749, -63.61239242553711, 71.71328735351562, 6.650298595428467, -0.08420214802026749, 4.651149272918701, -0.07825159281492233, -38.22261047363281, -3.5588719844818115, 
515, 3359561967, -7.2481231689453125, -63.949485778808594, 71.77584838867188, 6.393316745758057, 0.37638476490974426, 4.662765026092529, -1.1100715398788452, -42.81259536743164, -1.3259485960006714, 
516, 3359570300, -7.378765106201172, -64.3241195678711, 71.89246368408203, 6.43485689163208, 0.5171633958816528, 4.431841850280762, -2.5097391605377197, -47.60691833496094, 0.8100902438163757, 
517, 3359578633, -7.566237926483154, -64.73090362548828, 72.06005096435547, 6.592446804046631, 0.25094226002693176, 4.298044204711914, -3.754082441329956, -51.78882598876953, 2.693842887878418, 
518, 3359586966, -7.799044132232666, -65.16739654541016, 72.27009582519531, 6.517090320587158, 0.013985149562358856, 4.27155065536499, -4.524484634399414, -55.57207107543945, 4.053962707519531, 
519, 3359595299, -8.050699234008789, -65.64562225341797, 72.49658966064453, 5.797982215881348, -0.40417471528053284, 4.281558513641357, -4.907933712005615, -60.675453186035156, 3.7571465969085693, 
520, 3359603632, -8.32252311706543, -66.17971801757812, 72.74516296386719, 5.192014217376709, -0.5382573008537292, 4.337478160858154, -4.810372352600098, -67.40812683105469, 3.4014689922332764, 
521, 3359611965, -8.616909980773926, -66.7787857055664, 73.01728820800781, 5.084240436553955, -0.7086055874824524, 4.125432014465332, -4.799619674682617, -75.30226135253906, 2.7731776237487793, 
522, 3359620298, -8.933176040649414, -67.43785095214844, 73.31529235839844, 5.741996765136719, -0.875906765460968, 3.8143441677093506, -4.428138256072998, -82.52266693115234, 2.162712335586548, 
523, 3359628631, -9.29326343536377, -68.13589477539062, 73.66122436523438, 7.124104976654053, -0.4101714789867401, 3.5115599632263184, -4.195051193237305, -87.47625732421875, 2.695570707321167, 
524, 3359636964, -9.717842102050781, -68.85853576660156, 74.06725311279297, 7.78630256652832, -0.23613980412483215, 3.192434072494507, -5.038919925689697, -90.71256256103516, 3.7734267711639404, 
525, 3359645297, -10.228212356567383, -69.59512329101562, 74.557861328125, 8.29236125946045, -0.19900518655776978, 3.0269083976745605, -5.6182684898376465, -92.96126556396484, 5.723480224609375, 
526, 3359653630, -10.811692237854004, -70.33550262451172, 75.11973571777344, 8.741669654846191, -0.25402140617370605, 2.7355360984802246, -6.094058513641357, -93.80270385742188, 6.970879077911377, 
527, 3359661963, -11.466785430908203, -71.0731430053711, 75.75084686279297, 9.133894920349121, -0.41752830147743225, 2.5353009700775146, -6.550661563873291, -93.97528839111328, 7.92073917388916, 
528, 3359670296, -12.18295669555664, -71.80408477783203, 76.44403839111328, 9.439716339111328, -0.6805379390716553, 2.3392603397369385, -6.506298065185547, -93.5120849609375, 8.423961639404297, 
529, 3359678629, -12.935406684875488, -72.52597045898438, 77.17415618896484, 9.651543617248535, -0.8613856434822083, 2.1804497241973877, -6.309781551361084, -92.67485046386719, 7.8232741355896, 
530, 3359686962, -13.735600471496582, -73.23284149169922, 77.95680236816406, 9.8464937210083, -0.6055944561958313, 2.112438201904297, -5.683328151702881, -91.14443969726562, 7.819507122039795, 
531, 3359695295, -14.615235328674316, -73.92617797851562, 78.82135009765625, 9.602611541748047, -0.20142635703086853, 2.064788341522217, -5.4666547775268555, -90.13938903808594, 8.521801948547363, 
532, 3359703628, -15.635659217834473, -74.61512756347656, 79.8265609741211, 8.234554290771484, -0.17925041913986206, 2.234628677368164, -5.765626907348633, -90.57467651367188, 10.47562026977539, 
533, 3359711961, -16.77359962463379, -75.31990051269531, 80.94773864746094, 8.007142066955566, -0.9839383959770203, 2.1189823150634766, -6.030584812164307, -93.22974395751953, 10.377264022827148, 
534, 3359720294, -17.972198486328125, -76.04476928710938, 82.13499450683594, 9.321894645690918, -1.575087547302246, 1.7210888862609863, -5.206545352935791, -95.77311706542969, 8.131881713867188, 
535, 3359728627, -19.15183448791504, -76.7576675415039, 83.3096694946289, 11.291916847229004, -1.808061957359314, 1.2024856805801392, -3.9713644981384277, -93.93058776855469, 4.651260852813721, 
536, 3359736960, -20.256704330444336, -77.43571472167969, 84.41635131835938, 13.025860786437988, -1.7941726446151733, 0.8024464845657349, -2.551887273788452, -88.82903289794922, 0.9686987400054932, 
537, 3359745293, -21.24553871154785, -78.05131530761719, 85.40972137451172, 13.90758991241455, -1.3207604885101318, 0.5781717300415039, -1.5943927764892578, -80.32026672363281, -2.043771266937256, 
538, 3359753626, -22.13168716430664, -78.59785461425781, 86.29891204833984, 13.508607864379883, -1.2305954694747925, 0.6493081450462341, -1.2619678974151611, -71.15828704833984, -3.6937432289123535, 
539, 3359761959, -22.84405517578125, -79.0905532836914, 87.01667022705078, 12.476452827453613, -1.2900750637054443, 0.9555988311767578, -0.40900957584381104, -63.276512145996094, -6.760390281677246, 
540, 3359770292, -23.494232177734375, -79.55860137939453, 87.6753921508789, 10.937795639038086, -0.7073033452033997, 1.2024435997009277, 0.2431182861328125, -59.626651763916016, -8.152551651000977, 
541, 3359778625, -24.234121322631836, -80.00594329833984, 88.42418670654297, 10.392685890197754, -0.05325350537896156, 1.2510355710983276, 0.21353371441364288, -57.80916976928711, -6.684695720672607, 
542, 3359786958, -25.181188583374023, -80.43174743652344, 89.37998962402344, 9.98553466796875, 0.09945240616798401, 1.258503794670105, -0.03875444456934929, -56.801979064941406, -3.178581714630127, 
543, 3359795291, -26.33022117614746, -80.84322357177734, 90.53770446777344, 9.9354829788208, -0.14532490074634552, 1.2360714673995972, -0.231988787651062, -56.55726623535156, -0.6423812508583069, 
544, 3359803624, -27.7049503326416, -81.24002838134766, 91.92252349853516, 10.10136890411377, 0.053238395601511, 1.108169674873352, -0.23383300006389618, -56.40485382080078, 1.9032070636749268, 
545, 3359811957, -29.289316177368164, -81.61665344238281, 93.51321411132812, 10.283044815063477, -0.1306925266981125, 0.9653366208076477, -0.7897402048110962, -55.54518127441406, 3.909780502319336, 
546, 3359820290, -31.095962524414062, -81.97248840332031, 95.32657623291016, 10.436753273010254, -0.32509884238243103, 0.9240256547927856, -0.8406102061271667, -54.74686050415039, 5.855955123901367, 
547, 3359828623, -32.9812126159668, -82.30445861816406, 97.21627807617188, 11.102439880371094, -0.7105188965797424, 0.6291434168815613, -1.0275688171386719, -52.49491500854492, 5.613975524902344, 
548, 3359836956, -34.86693572998047, -82.60379028320312, 99.1081314086914, 11.670705795288086, -0.9429170489311218, 0.42515671253204346, -0.6445323824882507, -48.664947509765625, 5.176891326904297, 
549, 3359845289, -36.62616729736328, -82.8656234741211, 100.87307739257812, 11.913193702697754, -0.9445412158966064, 0.31594035029411316, -0.4354684054851532, -43.4007568359375, 3.851862668991089, 
550, 3359853622, -38.22488784790039, -83.08837890625, 102.47779083251953, 11.731436729431152, -0.9804957509040833, 0.29415908455848694, -0.1414419561624527, -37.76825714111328, 2.9331531524658203, 
551, 3359861955, -39.72730255126953, -83.28376007080078, 103.9858169555664, 10.479304313659668, -0.8996695876121521, 0.5796079635620117, -0.031505536288022995, -33.98553466796875, 2.4094691276550293, 
552, 3359870288, -41.21253967285156, -83.4863052368164, 105.47534942626953, 9.097423553466797, -0.8510025143623352, 0.90369713306427, -0.09397871792316437, -34.086021423339844, 0.3695497512817383, 
553, 3359878621, -42.850826263427734, -83.70620727539062, 107.1171875, 8.650845527648926, -0.5297260284423828, 1.0000975131988525, -0.21918128430843353, -36.55793380737305, -0.8784668445587158, 
554, 3359886954, -44.77117156982422, -83.93942260742188, 109.03919982910156, 9.019625663757324, -0.3860273063182831, 0.8852975368499756, -0.5624893307685852, -39.602195739746094, -0.9776966571807861, 
555, 3359895287, -46.97202682495117, -84.17018127441406, 111.24034881591797, 9.571097373962402, -0.415196031332016, 0.671480655670166, -0.812330961227417, -41.173404693603516, -0.37419888377189636, 
556, 3359903620, -49.423858642578125, -84.39395141601562, 113.6916732788086, 9.679611206054688, -0.5421783924102783, 0.6047772169113159, -0.9350746870040894, -41.97239685058594, 0.0006531640538014472, 
557, 3359911953, -52.18324279785156, -84.60835266113281, 116.4472427368164, 9.437625885009766, -0.32346540689468384, 0.6457720994949341, -1.4032782316207886, -43.06354522705078, 0.547620415687561, 
558, 3359920286, -55.165748596191406, -84.84634399414062, 119.42867279052734, 12.15408992767334, -3.2847096920013428, 0.07924846559762955, -1.0593297481536865, -45.62395477294922, -3.0428225994110107, 
559, 3359928619, -55.7459831237793, -85.1192626953125, 120.00887298583984, 15.900832176208496, -1.9391731023788452, -1.2393815517425537, 0.3103295564651489, -25.845069885253906, -23.06932830810547, 
560, 3359936952, -55.802268981933594, -85.376953125, 120.0730209350586, 8.973280906677246, -2.281852960586548, 0.4833671450614929, 1.4943487644195557, -20.148305892944336, -24.719066619873047, 
561, 3359945285, -55.42210006713867, -85.72075653076172, 119.71003723144531, 9.657336235046387, -1.1557624340057373, 0.3930317461490631, 2.7695820331573486, -22.766841888427734, -35.50756072998047, 
562, 3359953618, -54.623931884765625, -86.07884216308594, 118.9286880493164, 10.070816040039062, -0.7524901628494263, 0.18701767921447754, 2.8321831226348877, -21.38005256652832, -38.57586669921875, 
563, 3359961951, -53.17774200439453, -86.46321868896484, 117.49581146240234, 9.81800651550293, -0.6358547806739807, 0.19933196902275085, 2.529064893722534, -20.388484954833984, -43.397823333740234, 
564, 3359970284, -51.05195617675781, -86.86094665527344, 115.37899780273438, 9.99958324432373, -0.7213508486747742, 0.21396325528621674, 2.086014986038208, -19.889190673828125, -46.291019439697266, 
565, 3359978617, -47.67106628417969, -87.24742889404297, 112.00154113769531, 13.070595741271973, 0.44136688113212585, -0.5906977653503418, 1.5032387971878052, -16.610151290893555, -48.2421875, 
566, 3359986950, -45.46372604370117, -87.44403839111328, 109.7717514038086, 13.566720962524414, 4.101404190063477, 0.08939778804779053, -1.821250557899475, -9.462316513061523, -25.173049926757812, 
567, 3359995283, -44.36157989501953, -87.55159759521484, 108.64287567138672, 10.328704833984375, -0.011249495670199394, 0.14279215037822723, -2.5112714767456055, -7.217120170593262, -12.847207069396973, 
568, 3360003616, -43.815330505371094, -87.61739349365234, 108.08170318603516, 10.006952285766602, 0.0640726387500763, 0.22868946194648743, -1.1707757711410522, -5.936483860015869, -7.056568622589111, 
569, 3360011949, -43.6485710144043, -87.65615844726562, 107.91241455078125, 9.992788314819336, 0.20606157183647156, 0.23701144754886627, 0.2868666350841522, -5.072105407714844, -3.398958206176758, 
570, 3360020282, -43.890357971191406, -87.67720794677734, 108.15963745117188, 9.94267749786377, 0.07989124208688736, 0.21352453529834747, 1.2070578336715698, -4.894290924072266, -0.39676445722579956, 
571, 3360028615, -44.35124206542969, -87.6845474243164, 108.63063049316406, 9.853554725646973, -0.10512587428092957, 0.2284388244152069, 1.7441374063491821, -4.451216220855713, 1.5105868577957153, 
572, 3360036948, -44.88249969482422, -87.69081115722656, 109.17240905761719, 9.780660629272461, -0.24163247644901276, 0.28170186281204224, 1.7999762296676636, -4.587841987609863, 1.8434691429138184, 
573, 3360045281, -45.371192932128906, -87.70015716552734, 109.67066192626953, 9.85393238067627, -0.2696493864059448, 0.2851612865924835, 1.6703170537948608, -4.7615580558776855, 1.344836950302124, 
574, 3360053614, -45.74398422241211, -87.71466827392578, 110.05010986328125, 9.831851959228516, -0.20973406732082367, 0.23672446608543396, 1.3402009010314941, -4.735662460327148, 0.5305092930793762, 
575, 3360061947, -46.10173416137695, -87.72686004638672, 110.41341400146484, 9.856762886047363, -0.17633122205734253, 0.22127199172973633, 1.2025500535964966, -4.496502876281738, 0.6319672465324402, 
576, 3360070280, -46.469661712646484, -87.73912048339844, 110.78668212890625, 9.851393699645996, -0.1744765043258667, 0.23070462048053741, 1.193636178970337, -4.509667873382568, 0.663626492023468, 
577, 3360078613, -46.87595748901367, -87.7469253540039, 111.19857788085938, 9.954763412475586, -0.17071866989135742, 0.2373659908771515, 1.218712568283081, -4.316561698913574, 1.107572317123413, 
578, 3360086946, -47.22922134399414, -87.75032043457031, 111.55841827392578, 9.938011169433594, -0.15649564564228058, 0.24717889726161957, 1.316405177116394, -3.749591112136841, 1.3383053541183472, 
579, 3360095279, -47.64152908325195, -87.75092315673828, 111.97723388671875, 9.932829856872559, -0.1457100361585617, 0.1760905534029007, 1.3236027956008911, -3.748976469039917, 1.7457255125045776, 
580, 3360103612, -48.007694244384766, -87.74432373046875, 112.3506851196289, 9.943681716918945, -0.14121468365192413, 0.16353361308574677, 1.436894416809082, -2.9908459186553955, 2.2689216136932373, 
581, 3360111945, -48.44683837890625, -87.73030853271484, 112.79928588867188, 9.881651878356934, -0.12758876383304596, 0.20487980544567108, 1.6655272245407104, -2.734985828399658, 3.1054317951202393, 
582, 3360120278, -48.90056228637695, -87.71261596679688, 113.263671875, 9.881387710571289, -0.1620764136314392, 0.2258131504058838, 1.7936241626739502, -2.473566770553589, 3.562901735305786, 
583, 3360128611, -49.335693359375, -87.69047546386719, 113.7105712890625, 9.875408172607422, -0.1738646924495697, 0.22345885634422302, 1.9590665102005005, -2.139326572418213, 3.873218536376953, 
584, 3360136944, -49.77100372314453, -87.66602325439453, 114.15888214111328, 9.847042083740234, -0.18356071412563324, 0.20598535239696503, 2.103966236114502, -1.9748064279556274, 4.14219331741333, 
585, 3360145277, -50.15525436401367, -87.63934326171875, 114.55592346191406, 9.877028465270996, -0.19968882203102112, 0.20399905741214752, 2.054044008255005, -1.6811902523040771, 4.169011116027832, 
586, 3360153610, -50.43897247314453, -87.61214447021484, 114.8520736694336, 9.839201927185059, -0.21088287234306335, 0.2212991565465927, 2.049125909805298, -1.2838623523712158, 3.92887806892395, 
587, 3360161943, -50.68754959106445, -87.58589172363281, 115.11161041259766, 9.848417282104492, -0.24832966923713684, 0.18018613755702972, 1.8543554544448853, -1.2378337383270264, 3.7466328144073486, 
588, 3360170276, -50.8540153503418, -87.5605697631836, 115.28822326660156, 9.823174476623535, -0.2740952670574188, 0.2556358873844147, 1.7749511003494263, -0.9952923059463501, 3.418334722518921, 
589, 3360178609, -50.970211029052734, -87.54010772705078, 115.41307830810547, 9.809187889099121, -0.29335761070251465, 0.2511182725429535, 1.6045656204223633, -1.1837106943130493, 2.7907097339630127, 
590, 3360186942, -51.030555725097656, -87.5250473022461, 115.48033142089844, 9.788347244262695, -0.3439008295536041, 0.25355809926986694, 1.396500825881958, -1.3843982219696045, 2.0795302391052246, 
591, 3360195275, -51.03071975708008, -87.516357421875, 115.4864273071289, 9.816280364990234, -0.3346076011657715, 0.258218377828598, 1.3022149801254272, -1.5977904796600342, 1.319017767906189, 
592, 3360203608, -50.979637145996094, -87.51446533203125, 115.43999481201172, 9.865303993225098, -0.3122963607311249, 0.2324887216091156, 1.140204906463623, -1.9193516969680786, 0.48332783579826355, 
593, 3360211941, -50.8676872253418, -87.51619720458984, 115.33219909667969, 9.83566665649414, -0.2788512408733368, 0.2203070968389511, 1.0747349262237549, -1.933900237083435, -0.040035050362348557, 
594, 3360220274, -50.70135498046875, -87.52101135253906, 115.16950225830078, 9.826777458190918, -0.2784769535064697, 0.21713589131832123, 1.0352632999420166, -1.9346686601638794, -0.48579955101013184, 
595, 3360228607, -50.481163024902344, -87.5277328491211, 114.95310974121094, 9.80542278289795, -0.2514430284500122, 0.21952615678310394, 1.0571378469467163, -1.8895363807678223, -0.8687835931777954, 
596, 3360236940, -50.20817565917969, -87.53264617919922, 114.68331909179688, 9.885601997375488, -0.23521587252616882, 0.20108221471309662, 0.9850082993507385, -1.5403889417648315, -0.8671956062316895, 
597, 3360245273, -49.906368255615234, -87.53804779052734, 114.38591766357422, 9.853458404541016, -0.24721163511276245, 0.21551565825939178, 1.152166724205017, -1.4662867784500122, -0.9910659193992615, 
598, 3360253606, -49.53805160522461, -87.54489135742188, 114.02190399169922, 9.857184410095215, -0.2491515576839447, 0.25785642862319946, 1.1314448118209839, -1.3205931186676025, -1.3383437395095825, 
599, 3360261939, -49.10139465332031, -87.55191802978516, 113.58783721923828, 9.889442443847656, -0.2928615212440491, 0.2503821551799774, 0.9330626726150513, -1.1394493579864502, -1.6656938791275024, 
600, 3360270272, -48.58147048950195, -87.56474304199219, 113.06813049316406, 9.823692321777344, -0.30025947093963623, 0.27800312638282776, 0.6588878035545349, -1.241265892982483, -2.4176254272460938, 
601, 3360278605, -47.976497650146484, -87.58313751220703, 112.461181640625, 9.82064437866211, -0.34741830825805664, 0.2617342472076416, 0.39493313431739807, -1.3940035104751587, -3.2076709270477295, 
602, 3360286938, -47.17594528198242, -87.60984802246094, 111.65304565429688, 9.783870697021484, -0.31220412254333496, 0.2465047985315323, -0.25611674785614014, -1.4018158912658691, -4.634178638458252, 
603, 3360295271, -46.13924026489258, -87.6415023803711, 110.60538482666016, 9.85391616821289, -0.2675624489784241, 0.1210503950715065, -0.624321460723877, -1.0559982061386108, -5.854492664337158, 
604, 3360303604, -44.862422943115234, -87.66678619384766, 109.31912231445312, 9.730344772338867, -0.16511978209018707, 0.3033865988254547, -0.4274247884750366, 0.140558123588562, -6.113733768463135, 
