PacketCounter,SampleTimeFine,Euler_X,Euler_Y,Euler_Z,Acc_X,Acc_Y,Acc_Z,Gyr_X,Gyr_Y,Gyr_Z,
0, 3202959898, 9.232748985290527, -87.89002990722656, -35.146366119384766, 0, 0, 0, 0, 0, 0, 
1, 3202968231, 9.074857711791992, -87.89067840576172, -34.98331832885742, 9.859625816345215, -0.09892706573009491, 0.243365079164505, 1.199194312095642, -2.057950019836426, 0.9560896754264832, 
2, 3202976564, 9.001043319702148, -87.88816833496094, -34.90378189086914, 9.765653610229492, -0.11496221274137497, 0.25825247168540955, 1.2759603261947632, -1.8753719329833984, 0.7757143378257751, 
3, 3202984897, 8.878585815429688, -87.88650512695312, -34.775936126708984, 9.84211540222168, -0.09695369750261307, 0.2275446206331253, 1.2605407238006592, -1.8744498491287231, 0.7727174758911133, 
4, 3202993230, 8.827213287353516, -87.88483428955078, -34.719688415527344, 9.80359172821045, -0.11361133307218552, 0.2302970588207245, 1.1543951034545898, -1.9665583372116089, 0.6867304444313049, 
5, 3203001563, 8.74818229675293, -87.88400268554688, -34.636592864990234, 9.812873840332031, -0.1444859504699707, 0.24652187526226044, 1.0753239393234253, -1.930442214012146, 0.5829159021377563, 
6, 3203009896, 8.782272338867188, -87.88206481933594, -34.665523529052734, 9.791760444641113, -0.12823839485645294, 0.29041942954063416, 1.179138422012329, -1.9771112203598022, 0.3071530759334564, 
7, 3203018229, 8.786437034606934, -87.88105010986328, -34.66559600830078, 9.80096435546875, -0.14822828769683838, 0.22234047949314117, 1.1032434701919556, -2.0121777057647705, 0.2237275242805481, 
8, 3203026562, 8.85550308227539, -87.88058471679688, -34.73086929321289, 9.8177490234375, -0.10772564262151718, 0.24880583584308624, 1.042384147644043, -2.196420669555664, 0.17938929796218872, 
9, 3203034895, 8.898688316345215, -87.88105010986328, -34.77040100097656, 9.801190376281738, -0.12307179719209671, 0.24792851507663727, 1.0356988906860352, -2.1515190601348877, 0.06627683341503143, 
10, 3203043228, 8.984818458557129, -87.8803939819336, -34.852779388427734, 9.797830581665039, -0.10324712097644806, 0.2570883333683014, 1.036749005317688, -2.2251343727111816, 0.10697785764932632, 
11, 3203051561, 9.015583992004395, -87.88188171386719, -34.88044738769531, 9.794656753540039, -0.10149044543504715, 0.21932658553123474, 0.9568837881088257, -2.2730326652526855, 0.13914932310581207, 
12, 3203059894, 9.080831527709961, -87.88178253173828, -34.94216537475586, 9.822190284729004, -0.11255926638841629, 0.2540585696697235, 1.0234551429748535, -2.2718803882598877, 0.2068989872932434, 
13, 3203068227, 9.079739570617676, -87.88400268554688, -34.93756866455078, 9.790186882019043, -0.11424379050731659, 0.2416357398033142, 1.0293209552764893, -2.374285936355591, 0.3013130724430084, 
14, 3203076560, 9.094964981079102, -87.88483428955078, -34.94939041137695, 9.832939147949219, -0.09384443610906601, 0.2502796947956085, 1.0021953582763672, -2.3729286193847656, 0.4487486183643341, 
15, 3203084893, 9.041136741638184, -87.88650512695312, -34.8908805847168, 9.801169395446777, -0.08610638976097107, 0.27465328574180603, 1.138360619544983, -2.2185256481170654, 0.5177277326583862, 
16, 3203093226, 9.04543399810791, -87.8865966796875, -34.89122772216797, 9.784883499145508, -0.1006116047501564, 0.27160367369651794, 1.043920874595642, -2.2172446250915527, 0.4730052351951599, 
17, 3203101559, 8.988280296325684, -87.88816833496094, -34.83039093017578, 9.823513984680176, -0.09096737951040268, 0.22101722657680511, 1.0447406768798828, -2.250441312789917, 0.5345563292503357, 
18, 3203109892, 8.972972869873047, -87.8888168334961, -34.810302734375, 9.80894947052002, -0.1082848310470581, 0.22112713754177094, 1.1487343311309814, -2.294497489929199, 0.5761281847953796, 
19, 3203118225, 8.9354248046875, -87.88993072509766, -34.768409729003906, 9.818382263183594, -0.11201773583889008, 0.244676411151886, 1.1365163326263428, -2.225543975830078, 0.44751909375190735, 
20, 3203126558, 8.9494047164917, -87.89002990722656, -34.778038024902344, 9.804505348205566, -0.1154237687587738, 0.24581290781497955, 1.102705717086792, -2.231153726577759, 0.43402042984962463, 
21, 3203134891, 8.899581909179688, -87.89067840576172, -34.72390365600586, 9.811912536621094, -0.10815867781639099, 0.2684026062488556, 1.0959947109222412, -2.115582227706909, 0.4828155040740967, 
22, 3203143224, 8.901776313781738, -87.8897476196289, -34.72188949584961, 9.80321979522705, -0.11611516028642654, 0.2137041985988617, 1.0947908163070679, -2.118809700012207, 0.4695729613304138, 
23, 3203151557, 8.897220611572266, -87.89021301269531, -34.713722229003906, 9.836478233337402, -0.10740777850151062, 0.2632198929786682, 1.021892786026001, -2.135510206222534, 0.28041183948516846, 
24, 3203159890, 8.908349990844727, -87.89021301269531, -34.72026443481445, 9.805240631103516, -0.11164706200361252, 0.2343941181898117, 1.1235556602478027, -2.22820782661438, 0.44751909375190735, 
25, 3203168223, 8.885167121887207, -87.89030456542969, -34.69337463378906, 9.812637329101562, -0.09777944535017014, 0.2671452760696411, 1.052322506904602, -2.1024932861328125, 0.36086615920066833, 
26, 3203176556, 8.89403247833252, -87.89002990722656, -34.698143005371094, 9.79954719543457, -0.09131735563278198, 0.22564320266246796, 1.0685616731643677, -2.2132489681243896, 0.45382019877433777, 
27, 3203184889, 8.831040382385254, -87.89290618896484, -34.63074493408203, 9.84426212310791, -0.09970380365848541, 0.21203415095806122, 1.112362265586853, -2.3553569316864014, 0.579637348651886, 
28, 3203193222, 8.797317504882812, -87.8935546875, -34.59294128417969, 9.777948379516602, -0.09733079373836517, 0.26462113857269287, 1.0765022039413452, -2.292781352996826, 0.6554298400878906, 
29, 3203201555, 8.70275592803955, -87.8958740234375, -34.49349594116211, 9.803911209106445, -0.09097205847501755, 0.26735275983810425, 1.1555733680725098, -2.283047676086426, 0.7138046026229858, 
30, 3203209888, 8.661446571350098, -87.8958740234375, -34.447689056396484, 9.823981285095215, -0.10608604550361633, 0.25745096802711487, 1.129549264907837, -2.2032597064971924, 0.6770482659339905, 
31, 3203218221, 8.585465431213379, -87.89708709716797, -34.36735916137695, 9.788491249084473, -0.1190534457564354, 0.2213054746389389, 1.129959225654602, -2.2280797958374023, 0.618596613407135, 
32, 3203226554, 8.546530723571777, -87.89681243896484, -34.32406234741211, 9.794819831848145, -0.12927162647247314, 0.20836780965328217, 1.095328688621521, -2.1573331356048584, 0.659374475479126, 
33, 3203234887, 8.467735290527344, -87.8985824584961, -34.24149703979492, 9.806007385253906, -0.10685257613658905, 0.25793880224227905, 1.0310369729995728, -2.2285921573638916, 0.6262808442115784, 
34, 3203243220, 8.441018104553223, -87.89866638183594, -34.21107482910156, 9.779468536376953, -0.11518841981887817, 0.2916213572025299, 1.0241211652755737, -2.234893321990967, 0.6133200526237488, 
35, 3203251553, 8.402278900146484, -87.90015411376953, -34.16855239868164, 9.793235778808594, -0.11496195197105408, 0.262947142124176, 1.0617228746414185, -2.2592525482177734, 0.4554339349269867, 
36, 3203259886, 8.415173530578613, -87.90137481689453, -34.17771911621094, 9.81226634979248, -0.1261308342218399, 0.23836365342140198, 1.014362096786499, -2.345956563949585, 0.45274436473846436, 
37, 3203268219, 8.399044036865234, -87.90249633789062, -34.15860366821289, 9.81751537322998, -0.11640703678131104, 0.2204982340335846, 0.9668477773666382, -2.2407591342926025, 0.348340779542923, 
38, 3203276552, 8.424354553222656, -87.9014663696289, -34.1806755065918, 9.800267219543457, -0.07741472870111465, 0.2385079711675644, 0.9740453958511353, -2.139352321624756, 0.36568164825439453, 
39, 3203284885, 8.386384963989258, -87.90249633789062, -34.13885498046875, 9.820509910583496, -0.09998713433742523, 0.3067707419395447, 1.0568816661834717, -2.184868574142456, 0.44021904468536377, 
40, 3203293218, 8.370875358581543, -87.90425872802734, -34.11983871459961, 9.780540466308594, -0.09621309489011765, 0.23467357456684113, 1.0034505128860474, -2.4150125980377197, 0.588653564453125, 
41, 3203301551, 8.292901992797852, -87.9074478149414, -34.03810501098633, 9.832786560058594, -0.10952068120241165, 0.24909134209156036, 1.0269643068313599, -2.401360034942627, 0.6494104862213135, 
42, 3203309884, 8.260494232177734, -87.90959930419922, -34.00204086303711, 9.810220718383789, -0.09222882241010666, 0.27606138586997986, 1.0345205068588257, -2.4915223121643066, 0.6755370497703552, 
43, 3203318217, 8.203093528747559, -87.91325378417969, -33.9407844543457, 9.794611930847168, -0.10936663299798965, 0.25605422258377075, 1.0490694046020508, -2.4885764122009277, 0.5697758197784424, 
44, 3203326550, 8.171339988708496, -87.9161605834961, -33.905296325683594, 9.826408386230469, -0.09527139365673065, 0.21931211650371552, 1.0188703536987305, -2.540727376937866, 0.6777911186218262, 
45, 3203334883, 8.096863746643066, -87.92020416259766, -33.82725143432617, 9.80806827545166, -0.10221382975578308, 0.21761469542980194, 1.0228403806686401, -2.5186219215393066, 0.6478992700576782, 
46, 3203343216, 8.076373100280762, -87.92179870605469, -33.80231475830078, 9.802894592285156, -0.12062407284975052, 0.251558780670166, 1.1200721263885498, -2.4312007427215576, 0.6166242361068726, 
47, 3203351549, 8.0366849899292, -87.92481231689453, -33.75934600830078, 9.830290794372559, -0.11238634586334229, 0.23817604780197144, 0.9623652100563049, -2.3787429332733154, 0.4719806909561157, 
48, 3203359882, 8.02856731414795, -87.92613983154297, -33.74738311767578, 9.8014554977417, -0.11175759136676788, 0.23410263657569885, 1.0404119491577148, -2.3651673793792725, 0.5490795969963074, 
49, 3203368215, 8.001392364501953, -87.9285888671875, -33.71657180786133, 9.784045219421387, -0.11298446357250214, 0.2239409238100052, 1.0485570430755615, -2.402769088745117, 0.42331361770629883, 
50, 3203376548, 8.018301963806152, -87.9286880493164, -33.73094940185547, 9.838788986206055, -0.1216377541422844, 0.23189494013786316, 0.8711786270141602, -2.228771686553955, 0.4129399359226227, 
51, 3203384881, 8.007513999938965, -87.92981719970703, -33.716609954833984, 9.789673805236816, -0.11851200461387634, 0.25490814447402954, 1.0306016206741333, -2.2268247604370117, 0.3274652063846588, 
52, 3203393214, 8.056905746459961, -87.9310531616211, -33.76279830932617, 9.823214530944824, -0.11678902804851532, 0.2627505958080292, 0.9613662362098694, -2.4035115242004395, 0.29882845282554626, 
53, 3203401547, 8.043368339538574, -87.93284606933594, -33.746681213378906, 9.818242073059082, -0.10171721875667572, 0.2913478910923004, 0.9119564294815063, -2.318856716156006, 0.3480846583843231, 
54, 3203409880, 8.081148147583008, -87.93313598632812, -33.780696868896484, 9.77783489227295, -0.07965785264968872, 0.2442445605993271, 1.022635579109192, -2.2413737773895264, 0.3291301429271698, 
55, 3203418213, 8.050972938537598, -87.93560028076172, -33.748226165771484, 9.818244934082031, -0.0833267793059349, 0.23567402362823486, 0.879964292049408, -2.393214702606201, 0.43017831444740295, 
56, 3203426546, 8.062386512756348, -87.93607330322266, -33.756412506103516, 9.798138618469238, -0.08078593015670776, 0.23366445302963257, 0.980090320110321, -2.311095714569092, 0.454486221075058, 
57, 3203434879, 8.002735137939453, -87.9391098022461, -33.69285202026367, 9.82231616973877, -0.06913382560014725, 0.25590455532073975, 1.0672811269760132, -2.4424452781677246, 0.5722091794013977, 
58, 3203443212, 7.942412853240967, -87.94091033935547, -33.629268646240234, 9.799103736877441, -0.11693592369556427, 0.2545740604400635, 0.9451267719268799, -2.3685226440429688, 0.7729223370552063, 
59, 3203451545, 7.87019157409668, -87.94442749023438, -33.55327606201172, 9.86614990234375, -0.1025632917881012, 0.22178047895431519, 1.0522199869155884, -2.4842734336853027, 0.6324027180671692, 
60, 3203459878, 7.851256370544434, -87.94567108154297, -33.52922439575195, 9.810821533203125, -0.13697966933250427, 0.2804665267467499, 1.2119247913360596, -2.396211862564087, 0.6054309010505676, 
61, 3203468211, 7.792626857757568, -87.9481430053711, -33.465423583984375, 9.863279342651367, -0.08865251392126083, 0.18900011479854584, 1.1970171928405762, -2.3270790576934814, 0.5546378493309021, 
62, 3203476544, 7.81113862991333, -87.94900512695312, -33.4784049987793, 9.81678581237793, -0.11444879323244095, 0.260147362947464, 1.2465550899505615, -2.338426113128662, 0.43696603178977966, 
63, 3203484877, 7.772195339202881, -87.94929504394531, -33.43389129638672, 9.822403907775879, -0.11395073682069778, 0.21523481607437134, 1.255366325378418, -2.0923500061035156, 0.44080817699432373, 
64, 3203493210, 7.797781944274902, -87.94977569580078, -33.454261779785156, 9.777517318725586, -0.10054614394903183, 0.25303009152412415, 1.2161511182785034, -2.2938060760498047, 0.39772504568099976, 
65, 3203501543, 7.744434833526611, -87.95130157470703, -33.394752502441406, 9.833418846130371, -0.1047503873705864, 0.2272806316614151, 1.3307749032974243, -2.2240071296691895, 0.5217747688293457, 
66, 3203509876, 7.754910469055176, -87.95121002197266, -33.39946365356445, 9.795328140258789, -0.09949636459350586, 0.3094463050365448, 1.2729891538619995, -2.253053903579712, 0.45968589186668396, 
67, 3203518209, 7.723474502563477, -87.95263671875, -33.363792419433594, 9.765789031982422, -0.10030844062566757, 0.24347259104251862, 1.1008614301681519, -2.242603302001953, 0.42495301365852356, 
68, 3203526542, 7.747147083282471, -87.95378112792969, -33.38325119018555, 9.859729766845703, -0.10224265605211258, 0.23364046216011047, 1.091896414756775, -2.388347864151001, 0.4135545790195465, 
69, 3203534875, 7.724639415740967, -87.95570373535156, -33.356937408447266, 9.777261734008789, -0.10252213478088379, 0.20530419051647186, 1.0697145462036133, -2.3385026454925537, 0.39790433645248413, 
70, 3203543208, 7.751680850982666, -87.95674896240234, -33.37993621826172, 9.808225631713867, -0.0853765681385994, 0.2434810847043991, 1.0688692331314087, -2.3624267578125, 0.39416471123695374, 
71, 3203551541, 7.699892520904541, -87.95924377441406, -33.324378967285156, 9.805825233459473, -0.099153071641922, 0.22106753289699554, 1.0255812406539917, -2.3530774116516113, 0.52464359998703, 
72, 3203559874, 7.680233478546143, -87.96039581298828, -33.300079345703125, 9.840678215026855, -0.08944310247898102, 0.26584339141845703, 1.1400254964828491, -2.347109317779541, 0.5969525575637817, 
73, 3203568207, 7.6249918937683105, -87.962890625, -33.24062728881836, 9.77801513671875, -0.0946752205491066, 0.23062999546527863, 1.0888227224349976, -2.3573551177978516, 0.5412928462028503, 
74, 3203576540, 7.58540678024292, -87.96500396728516, -33.19615936279297, 9.851149559020996, -0.10729992389678955, 0.2288101315498352, 1.1528326272964478, -2.4195973873138428, 0.6922374367713928, 
75, 3203584873, 7.502701759338379, -87.96721649169922, -33.108856201171875, 9.80272388458252, -0.10580261051654816, 0.2678484320640564, 1.1508347988128662, -2.34283185005188, 0.6597842574119568, 
76, 3203593206, 7.484823703765869, -87.9675064086914, -33.08606719970703, 9.832411766052246, -0.11564718186855316, 0.24355530738830566, 1.1675864458084106, -2.239196538925171, 0.5760001540184021, 
77, 3203601539, 7.421560764312744, -87.96943664550781, -33.01804733276367, 9.800257682800293, -0.10398207604885101, 0.21894459426403046, 1.1533962488174438, -2.2878122329711914, 0.5674193501472473, 
78, 3203609872, 7.414555549621582, -87.96904754638672, -33.006187438964844, 9.80028247833252, -0.09307094663381577, 0.23046733438968658, 1.1632064580917358, -2.1663753986358643, 0.519366979598999, 
79, 3203618205, 7.343694686889648, -87.9697265625, -32.93084716796875, 9.804096221923828, -0.12243995070457458, 0.21169641613960266, 1.1414344310760498, -2.1640443801879883, 0.5832746028900146, 
80, 3203626538, 7.327017307281494, -87.97000885009766, -32.908931732177734, 9.810611724853516, -0.09488453716039658, 0.2389024794101715, 1.1968635320663452, -2.2277469635009766, 0.5706723928451538, 
81, 3203634871, 7.261726379394531, -87.97135925292969, -32.83845138549805, 9.777973175048828, -0.10700976848602295, 0.24696311354637146, 1.225909948348999, -2.233022928237915, 0.5717993378639221, 
82, 3203643204, 7.262942314147949, -87.9714584350586, -32.836605072021484, 9.846234321594238, -0.12445283681154251, 0.2369312345981598, 0.9531185626983643, -2.2568962574005127, 0.48834824562072754, 
83, 3203651537, 7.191758155822754, -87.97088623046875, -32.761383056640625, 9.806251525878906, -0.08562783896923065, 0.2389184534549713, 1.07742440700531, -2.000164270401001, 0.5642431378364563, 
84, 3203659870, 7.184665679931641, -87.97077941894531, -32.749656677246094, 9.781830787658691, -0.10606905072927475, 0.2613280415534973, 1.1274234056472778, -2.2185258865356445, 0.5249765515327454, 
85, 3203668203, 7.115118503570557, -87.97193908691406, -32.676368713378906, 9.804062843322754, -0.09238957613706589, 0.2568986117839813, 1.0346486568450928, -2.1722664833068848, 0.5773577094078064, 
86, 3203676536, 7.11775541305542, -87.97184753417969, -32.674896240234375, 9.802257537841797, -0.10524144023656845, 0.27363836765289307, 1.0724552869796753, -2.2104573249816895, 0.478768527507782, 
87, 3203684869, 7.051868915557861, -87.97222900390625, -32.6057243347168, 9.798096656799316, -0.10251100361347198, 0.243209108710289, 0.9807561635971069, -2.0898399353027344, 0.5506420135498047, 
88, 3203693202, 7.059892177581787, -87.9714584350586, -32.60903549194336, 9.796653747558594, -0.112749382853508, 0.21299317479133606, 1.1488112211227417, -2.1608171463012695, 0.454050749540329, 
89, 3203701535, 7.014008045196533, -87.97213745117188, -32.55888748168945, 9.846930503845215, -0.08565214276313782, 0.24226228892803192, 1.0821373462677002, -2.1305153369903564, 0.47433722019195557, 
90, 3203709868, 7.029813766479492, -87.9714584350586, -32.570735931396484, 9.836712837219238, -0.11140181124210358, 0.2228512316942215, 1.0557547807693481, -2.1414783000946045, 0.4144255518913269, 
91, 3203718201, 6.97804594039917, -87.96981811523438, -32.51448059082031, 9.833086967468262, -0.08653544634580612, 0.27309906482696533, 1.143227219581604, -1.9128965139389038, 0.4744909107685089, 
92, 3203726534, 6.958801746368408, -87.9677963256836, -32.49047088623047, 9.80078411102295, -0.09600735455751419, 0.23462125658988953, 1.1518337726593018, -1.9652007818222046, 0.5482598543167114, 
93, 3203734867, 6.882040977478027, -87.96798706054688, -32.409088134765625, 9.796302795410156, -0.09577978402376175, 0.21684178709983826, 1.1597741842269897, -2.123061418533325, 0.6069933772087097, 
94, 3203743200, 6.862591743469238, -87.96692657470703, -32.38539505004883, 9.80930233001709, -0.08780479431152344, 0.22489286959171295, 1.0717893838882446, -2.0617666244506836, 0.5581470131874084, 
95, 3203751533, 6.756922721862793, -87.96654510498047, -32.274600982666016, 9.804553031921387, -0.09016399085521698, 0.25419241189956665, 1.222170352935791, -2.0300562381744385, 0.7237942218780518, 
96, 3203759866, 6.694590091705322, -87.9664535522461, -32.20781707763672, 9.808005332946777, -0.11278586089611053, 0.24755974113941193, 1.0943297147750854, -2.1742894649505615, 0.7548130750656128, 
97, 3203768199, 6.606579303741455, -87.96904754638672, -32.114749908447266, 9.803301811218262, -0.11411718279123306, 0.2666756808757782, 1.184773564338684, -2.3243634700775146, 0.680659830570221, 
98, 3203776532, 6.562306880950928, -87.97000885009766, -32.06665802001953, 9.79860782623291, -0.11124109476804733, 0.2378278523683548, 1.0321128368377686, -2.328564405441284, 0.6953111886978149, 
99, 3203784865, 6.472543716430664, -87.97213745117188, -31.97273063659668, 9.811256408691406, -0.13770686089992523, 0.21862755715847015, 1.0935612916946411, -2.341935157775879, 0.6865255236625671, 
100, 3203793198, 6.450942039489746, -87.97445678710938, -31.946657180786133, 9.824989318847656, -0.11935301125049591, 0.25720736384391785, 1.1036278009414673, -2.4575321674346924, 0.6132688522338867, 
101, 3203801531, 6.392683506011963, -87.9760971069336, -31.884836196899414, 9.786693572998047, -0.1268286108970642, 0.2430199235677719, 1.0350840091705322, -2.278104543685913, 0.5426504015922546, 
102, 3203809864, 6.370491027832031, -87.97667694091797, -31.858747482299805, 9.806921005249023, -0.10229957103729248, 0.23728010058403015, 1.0379528999328613, -2.285097122192383, 0.5925725102424622, 
103, 3203818197, 6.294381618499756, -87.97706604003906, -31.779510498046875, 9.80145263671875, -0.09409794956445694, 0.2419959157705307, 0.9593426585197449, -2.1100494861602783, 0.5984382033348083, 
104, 3203826530, 6.2573161125183105, -87.97715759277344, -31.73736572265625, 9.83146858215332, -0.10331609845161438, 0.24130293726921082, 1.1877961158752441, -2.2197554111480713, 0.6545078158378601, 
105, 3203834863, 6.198390960693359, -87.97860717773438, -31.673803329467773, 9.840728759765625, -0.10585518181324005, 0.20597971975803375, 1.1460450887680054, -2.249211549758911, 0.5456729531288147, 
106, 3203843196, 6.155892848968506, -87.978515625, -31.626413345336914, 9.788437843322754, -0.10998386889696121, 0.2538570165634155, 1.1760648488998413, -2.19875168800354, 0.6761006116867065, 
107, 3203851529, 6.051527500152588, -87.98064422607422, -31.517364501953125, 9.77245807647705, -0.12705302238464355, 0.2076396346092224, 1.1390266418457031, -2.328385591506958, 0.7465909719467163, 
108, 3203859862, 6.002702236175537, -87.98268127441406, -31.464073181152344, 9.807615280151367, -0.12079588323831558, 0.2118939459323883, 1.1143344640731812, -2.4476709365844727, 0.7257665991783142, 
109, 3203868195, 5.927706718444824, -87.9856948852539, -31.384374618530273, 9.800345420837402, -0.11213315278291702, 0.23332351446151733, 1.148145318031311, -2.3769497871398926, 0.6272285580635071, 
110, 3203876528, 5.933176517486572, -87.98676300048828, -31.38521385192871, 9.80545711517334, -0.10386697202920914, 0.26016637682914734, 1.1370543241500854, -2.3651416301727295, 0.4876565635204315, 
111, 3203884861, 5.890613079071045, -87.98958587646484, -31.338376998901367, 9.812589645385742, -0.1017959713935852, 0.22113697230815887, 1.1091349124908447, -2.435401439666748, 0.49306121468544006, 
112, 3203893194, 5.895615100860596, -87.99124145507812, -31.339807510375977, 9.801851272583008, -0.09355568885803223, 0.24182137846946716, 1.0182298421859741, -2.4289724826812744, 0.49139630794525146, 
113, 3203901527, 5.854346752166748, -87.9926986694336, -31.29435920715332, 9.792593955993652, -0.11999553442001343, 0.22647660970687866, 1.0956872701644897, -2.2707529067993164, 0.47064876556396484, 
114, 3203909860, 5.857525825500488, -87.9941635131836, -31.2935848236084, 9.806440353393555, -0.10646660625934601, 0.22547830641269684, 1.050913691520691, -2.3922927379608154, 0.49649354815483093, 
115, 3203918193, 5.792040824890137, -87.99552917480469, -31.22350311279297, 9.797009468078613, -0.09551503509283066, 0.2556667923927307, 1.1426126956939697, -2.2517476081848145, 0.5724397897720337, 
116, 3203926526, 5.793782711029053, -87.99650573730469, -31.221343994140625, 9.834317207336426, -0.11541196703910828, 0.23949146270751953, 1.044535756111145, -2.330690622329712, 0.49534091353416443, 
117, 3203934859, 5.734644412994385, -87.99845886230469, -31.15840721130371, 9.800440788269043, -0.10599040240049362, 0.24242542684078217, 1.0376198291778564, -2.299543619155884, 0.5471328496932983, 
118, 3203943192, 5.692528247833252, -87.99835968017578, -31.112668991088867, 9.830814361572266, -0.10013865679502487, 0.26098689436912537, 1.0390030145645142, -2.258816957473755, 0.6736159920692444, 
119, 3203951525, 5.613804817199707, -88.0005111694336, -31.030040740966797, 9.818819999694824, -0.11666839569807053, 0.22149841487407684, 1.052014946937561, -2.3183443546295166, 0.6321464776992798, 
120, 3203959858, 5.590055465698242, -88.0010986328125, -31.001983642578125, 9.796676635742188, -0.10886180400848389, 0.23367968201637268, 1.0817018747329712, -2.2543601989746094, 0.5951595902442932, 
121, 3203968191, 5.5287370681762695, -88.00344848632812, -30.93632698059082, 9.798288345336914, -0.09707330167293549, 0.24733684957027435, 1.1109790802001953, -2.3593525886535645, 0.5643200278282166, 
122, 3203976524, 5.544919013977051, -88.00375366210938, -30.947935104370117, 9.779603958129883, -0.12935559451580048, 0.23694640398025513, 1.1493747234344482, -2.3088159561157227, 0.43737587332725525, 
123, 3203984857, 5.525240898132324, -88.006103515625, -30.92381477355957, 9.82858657836914, -0.10745830088853836, 0.2331729531288147, 1.118253469467163, -2.3660638332366943, 0.388990581035614, 
124, 3203993190, 5.558722019195557, -88.00355529785156, -30.95395278930664, 9.812714576721191, -0.10214845091104507, 0.24542219936847687, 0.9993777275085449, -1.972039818763733, 0.3253648281097412, 
125, 3204001523, 5.52321720123291, -88.00463104248047, -30.91378402709961, 9.825949668884277, -0.11040832847356796, 0.2422240674495697, 1.1313680410385132, -2.160099744796753, 0.4376576542854309, 
126, 3204009856, 5.511263370513916, -88.00443267822266, -30.89694595336914, 9.809155464172363, -0.0937843769788742, 0.248189777135849, 1.1547281742095947, -2.162097692489624, 0.5389363169670105, 
127, 3204018189, 5.420841693878174, -88.00315856933594, -30.801673889160156, 9.82076644897461, -0.10239316523075104, 0.2247229963541031, 1.1948400735855103, -1.9795451164245605, 0.6542260050773621, 
128, 3204026522, 5.3787055015563965, -88.00149536132812, -30.753650665283203, 9.836807250976562, -0.10820984840393066, 0.22335807979106903, 1.2754735946655273, -2.0070290565490723, 0.6571459770202637, 
129, 3204034855, 5.284473419189453, -88.0010986328125, -30.6540470123291, 9.796561241149902, -0.1195521131157875, 0.23207658529281616, 1.2220168113708496, -1.9936327934265137, 0.6721559762954712, 
130, 3204043188, 5.2518134117126465, -87.99797058105469, -30.615623474121094, 9.787019729614258, -0.09337829798460007, 0.27655255794525146, 1.2688651084899902, -1.8586968183517456, 0.6043806672096252, 
131, 3204051521, 5.174546718597412, -87.99738311767578, -30.533164978027344, 9.816186904907227, -0.09633500874042511, 0.26442158222198486, 1.212693214416504, -1.9990630149841309, 0.603663444519043, 
132, 3204059854, 5.142826557159424, -87.99689483642578, -30.495988845825195, 9.798751831054688, -0.10785171389579773, 0.24617527425289154, 1.234900712966919, -2.1461143493652344, 0.6253331303596497, 
133, 3204068187, 5.0485148429870605, -87.99816131591797, -30.39615821838379, 9.832544326782227, -0.12428314238786697, 0.2244708091020584, 1.2581584453582764, -2.2347652912139893, 0.6976421475410461, 
134, 3204076520, 5.021600246429443, -87.9986572265625, -30.364166259765625, 9.815960884094238, -0.1025238111615181, 0.24260470271110535, 1.1851065158843994, -2.277617931365967, 0.6154972910881042, 
135, 3204084853, 4.946896076202393, -88.00100708007812, -30.284578323364258, 9.820606231689453, -0.07396448403596878, 0.2528468072414398, 1.1546257734298706, -2.327284097671509, 0.6206458210945129, 
136, 3204093186, 4.906370162963867, -88.00120544433594, -30.23904800415039, 9.800564765930176, -0.12384288758039474, 0.2290951907634735, 1.1864129304885864, -2.2240583896636963, 0.6670074462890625, 
137, 3204101519, 4.846771717071533, -88.00120544433594, -30.17473793029785, 9.813145637512207, -0.11681439727544785, 0.24069100618362427, 1.1508346796035767, -2.1102797985076904, 0.5380141139030457, 
138, 3204109852, 4.828144073486328, -88.00080871582031, -30.150903701782227, 9.795598983764648, -0.10246847569942474, 0.2529528737068176, 1.2068018913269043, -2.180514335632324, 0.5737204551696777, 
139, 3204118185, 4.775899887084961, -88.00227355957031, -30.093421936035156, 9.83837890625, -0.10413489490747452, 0.2375946044921875, 1.2147423028945923, -2.251235246658325, 0.5192389488220215, 
140, 3204126518, 4.7535295486450195, -88.0016860961914, -30.06708335876465, 9.78283405303955, -0.10536375641822815, 0.2553071677684784, 1.054243564605713, -2.1411707401275635, 0.5799703598022461, 
141, 3204134851, 4.673767566680908, -88.00257110595703, -29.982463836669922, 9.8148775100708, -0.1197584718465805, 0.2210565060377121, 1.186950922012329, -2.2142484188079834, 0.6328381299972534, 
142, 3204143184, 4.674393653869629, -88.00218200683594, -29.977949142456055, 9.798130989074707, -0.11817806959152222, 0.24216113984584808, 1.1867460012435913, -2.160970687866211, 0.48878365755081177, 
143, 3204151517, 4.600988864898682, -88.00218200683594, -29.900236129760742, 9.819171905517578, -0.09724394977092743, 0.2642824649810791, 1.1130281686782837, -2.0929136276245117, 0.5948010087013245, 
144, 3204159850, 4.608537673950195, -88.00120544433594, -29.903501510620117, 9.777674674987793, -0.1254143863916397, 0.2400721162557602, 1.0985305309295654, -2.1180665493011475, 0.4534359872341156, 
145, 3204168183, 4.549854755401611, -88.0010986328125, -29.839969635009766, 9.817516326904297, -0.11938919126987457, 0.21248163282871246, 1.1649225950241089, -2.0712950229644775, 0.5322765707969666, 
146, 3204176516, 4.549962043762207, -87.9997329711914, -29.836673736572266, 9.807564735412598, -0.10705845057964325, 0.22704240679740906, 0.9989935159683228, -2.078134059906006, 0.47920387983322144, 
147, 3204184849, 4.4689130783081055, -87.9992446899414, -29.751798629760742, 9.844138145446777, -0.11681658774614334, 0.24124068021774292, 1.044074535369873, -2.010256290435791, 0.6166754961013794, 
148, 3204193182, 4.4398298263549805, -87.9986572265625, -29.717859268188477, 9.766072273254395, -0.1053752526640892, 0.25484421849250793, 1.1655629873275757, -2.16243052482605, 0.6141140460968018, 
149, 3204201515, 4.351897239685059, -87.99874877929688, -29.62556266784668, 9.843689918518066, -0.11767066270112991, 0.2660519778728485, 1.090820550918579, -2.0652501583099365, 0.6549175381660461, 
150, 3204209848, 4.343715190887451, -87.99835968017578, -29.61272621154785, 9.777828216552734, -0.12619267404079437, 0.22922620177268982, 1.1336731910705566, -2.179719924926758, 0.5258986353874207, 
151, 3204218181, 4.25160026550293, -87.9980697631836, -29.516372680664062, 9.793810844421387, -0.10508640110492706, 0.24801874160766602, 1.1010407209396362, -2.0521867275238037, 0.6724632382392883, 
152, 3204226514, 4.229942798614502, -87.9982681274414, -29.490015029907227, 9.808039665222168, -0.11296357959508896, 0.21938343346118927, 1.1542414426803589, -2.2557177543640137, 0.5889096260070801, 
153, 3204234847, 4.147635459899902, -87.9996337890625, -29.402854919433594, 9.821819305419922, -0.10130158066749573, 0.2398073822259903, 1.1651787757873535, -2.233151435852051, 0.6463624238967896, 
154, 3204243180, 4.140040397644043, -87.99933624267578, -29.389904022216797, 9.783712387084961, -0.13615380227565765, 0.27233684062957764, 1.2211971282958984, -2.2009031772613525, 0.5286650061607361, 
155, 3204251513, 4.09071159362793, -87.99933624267578, -29.335426330566406, 9.800419807434082, -0.10699112713336945, 0.2505062520503998, 1.2321857213974, -2.137533664703369, 0.5040754079818726, 
156, 3204259846, 4.06036376953125, -87.9990463256836, -29.3005428314209, 9.791003227233887, -0.09755466878414154, 0.22714215517044067, 1.1248619556427002, -2.193014144897461, 0.6200566291809082, 
157, 3204268179, 3.9863486289978027, -88.0001220703125, -29.22156524658203, 9.851876258850098, -0.09964121133089066, 0.23542605340480804, 1.158416509628296, -2.1568210124969482, 0.6056869626045227, 
158, 3204276512, 3.9670393466949463, -87.99983215332031, -29.19671630859375, 9.798393249511719, -0.09672168642282486, 0.23965586721897125, 1.2455308437347412, -2.188045024871826, 0.5788689851760864, 
159, 3204284845, 3.888516426086426, -88.00003051757812, -29.114200592041016, 9.811238288879395, -0.105274498462677, 0.25698792934417725, 1.0762205123901367, -2.1281588077545166, 0.6214397549629211, 
160, 3204293178, 3.8877992630004883, -88.0001220703125, -29.10842514038086, 9.800027847290039, -0.12061117589473724, 0.24902230501174927, 1.1798045635223389, -2.2196786403656006, 0.4984658360481262, 
161, 3204301511, 3.804220676422119, -88.00003051757812, -29.021289825439453, 9.791945457458496, -0.09818108379840851, 0.24390797317028046, 1.026349663734436, -2.0828728675842285, 0.6375255584716797, 
162, 3204309844, 3.777003765106201, -87.9996337890625, -28.990922927856445, 9.791699409484863, -0.12652122974395752, 0.23212873935699463, 0.9627494215965271, -2.196779251098633, 0.6033304929733276, 
163, 3204318177, 3.7010984420776367, -88.00061798095703, -28.91070556640625, 9.839420318603516, -0.11282926052808762, 0.26233911514282227, 1.1005796194076538, -2.1777737140655518, 0.6144983768463135, 
164, 3204326510, 3.6800918579101562, -87.9991455078125, -28.886472702026367, 9.767069816589355, -0.11504193395376205, 0.2514881193637848, 0.9698958396911621, -2.0500094890594482, 0.5656775832176208, 
165, 3204334843, 3.6545448303222656, -88.00080871582031, -28.856952667236328, 9.820566177368164, -0.13560107350349426, 0.2588592767715454, 1.0656675100326538, -2.294625759124756, 0.409891813993454, 
166, 3204343176, 3.6826908588409424, -88.00061798095703, -28.880525588989258, 9.807482719421387, -0.09876460582017899, 0.24511396884918213, 1.1142833232879639, -2.1750071048736572, 0.373058557510376, 
167, 3204351509, 3.6209988594055176, -88.00061798095703, -28.81521224975586, 9.822267532348633, -0.10309413075447083, 0.24842575192451477, 1.033316731452942, -2.12833833694458, 0.5506932735443115, 
168, 3204359842, 3.6548068523406982, -88.0001220703125, -28.844480514526367, 9.808769226074219, -0.0930992066860199, 0.2356448620557785, 1.1303178071975708, -2.167604684829712, 0.3493397533893585, 
169, 3204368175, 3.6040730476379395, -88.00032043457031, -28.7891902923584, 9.81114673614502, -0.11322895437479019, 0.27091774344444275, 1.1347745656967163, -2.1338706016540527, 0.507891833782196, 
170, 3204376508, 3.597479820251465, -87.99983215332031, -28.777389526367188, 9.802423477172852, -0.10386157035827637, 0.25365352630615234, 1.216304898262024, -2.181154727935791, 0.5219540596008301, 
171, 3204384841, 3.510146379470825, -88.00120544433594, -28.685903549194336, 9.816718101501465, -0.09177663922309875, 0.2817986011505127, 1.0724552869796753, -2.2248525619506836, 0.6685700416564941, 
172, 3204393174, 3.487429618835449, -88.00100708007812, -28.658313751220703, 9.822161674499512, -0.10384704172611237, 0.2226591408252716, 1.1614903211593628, -2.203387975692749, 0.5891658067703247, 
173, 3204401507, 3.378934144973755, -88.00100708007812, -28.545475006103516, 9.799819946289062, -0.10650072991847992, 0.25911441445350647, 1.1225823163986206, -2.113071918487549, 0.7495109438896179, 
174, 3204409840, 3.333892583847046, -88.0002212524414, -28.495695114135742, 9.787833213806152, -0.125844806432724, 0.2790602743625641, 1.130881428718567, -2.10372257232666, 0.6770738959312439, 
175, 3204418173, 3.271052598953247, -88.00041961669922, -28.427820205688477, 9.794401168823242, -0.1281820386648178, 0.23349106311798096, 1.2046246528625488, -2.136636972427368, 0.5641151666641235, 
176, 3204426506, 3.2957897186279297, -87.9991455078125, -28.447702407836914, 9.826383590698242, -0.1262502521276474, 0.2296450287103653, 1.1599535942077637, -2.0849218368530273, 0.3834579288959503, 
177, 3204434839, 3.25864839553833, -88.00061798095703, -28.40570831298828, 9.790274620056152, -0.12714523077011108, 0.23756660521030426, 1.1735546588897705, -2.2566912174224854, 0.46240097284317017, 
178, 3204443172, 3.2990972995758057, -88.00227355957031, -28.442018508911133, 9.824410438537598, -0.08025497198104858, 0.2346140593290329, 1.0805493593215942, -2.445826530456543, 0.33599475026130676, 
179, 3204451505, 3.309032678604126, -88.00364685058594, -28.447433471679688, 9.81004810333252, -0.11335374414920807, 0.23188890516757965, 1.141255259513855, -2.2803587913513184, 0.2651713788509369, 
180, 3204459838, 3.3591740131378174, -88.00434112548828, -28.492929458618164, 9.82681655883789, -0.10031300038099289, 0.24673287570476532, 1.1300103664398193, -2.301746368408203, 0.2911185920238495, 
181, 3204468171, 3.355858325958252, -88.00531768798828, -28.485553741455078, 9.784215927124023, -0.11778876185417175, 0.26658114790916443, 1.0969936847686768, -2.253591775894165, 0.31850022077560425, 
182, 3204476504, 3.366030693054199, -88.0062026977539, -28.490829467773438, 9.829914093017578, -0.11238961666822433, 0.26703110337257385, 1.1605682373046875, -2.3276681900024414, 0.46030059456825256, 
183, 3204484837, 3.31636643409729, -88.00767517089844, -28.436479568481445, 9.795414924621582, -0.09593655169010162, 0.24735429883003235, 1.130368947982788, -2.2405283451080322, 0.5120413303375244, 
184, 3204493170, 3.3002450466156006, -88.00856018066406, -28.415809631347656, 9.80804443359375, -0.10538014769554138, 0.24743396043777466, 1.1166653633117676, -2.3193435668945312, 0.5675730109214783, 
185, 3204501503, 3.2301855087280273, -88.0101318359375, -28.3416690826416, 9.798223495483398, -0.0832868218421936, 0.24187782406806946, 1.0815739631652832, -2.3057165145874023, 0.5981563925743103, 
186, 3204509836, 3.200265645980835, -88.0106201171875, -28.306989669799805, 9.806609153747559, -0.11193031817674637, 0.26495569944381714, 1.1505274772644043, -2.239426851272583, 0.6220033168792725, 
187, 3204518169, 3.142336845397949, -88.01131439208984, -28.244855880737305, 9.786576271057129, -0.12631969153881073, 0.2313515692949295, 1.0994782447814941, -2.2251088619232178, 0.5449556708335876, 
188, 3204526502, 3.1308696269989014, -88.01347351074219, -28.229246139526367, 9.790464401245117, -0.13312920928001404, 0.2655549943447113, 1.074683666229248, -2.46767520904541, 0.5546634197235107, 
189, 3204534835, 3.0800435543060303, -88.0162353515625, -28.174571990966797, 9.813043594360352, -0.12295184284448624, 0.24135252833366394, 1.0548583269119263, -2.4404990673065186, 0.5248740911483765, 
190, 3204543168, 3.104621648788452, -88.0182113647461, -28.19624900817871, 9.766225814819336, -0.11715282499790192, 0.21748057007789612, 0.9322685599327087, -2.4834282398223877, 0.40013280510902405, 
191, 3204551501, 3.124054431915283, -88.0209732055664, -28.21129035949707, 9.80544662475586, -0.12920981645584106, 0.2202899307012558, 1.1175363063812256, -2.465728521347046, 0.23656027019023895, 
192, 3204559834, 3.2133307456970215, -88.0220718383789, -28.296817779541016, 9.81930923461914, -0.09662535041570663, 0.25040245056152344, 1.0297307968139648, -2.347980260848999, 0.12775099277496338, 
193, 3204568167, 3.2415316104888916, -88.02384185791016, -28.32131576538086, 9.809893608093262, -0.11410943418741226, 0.2453487068414688, 1.0613131523132324, -2.3749263286590576, 0.19626909494400024, 
194, 3204576500, 3.3148996829986572, -88.02593231201172, -28.391010284423828, 9.839727401733398, -0.08843881636857986, 0.19597595930099487, 1.021021842956543, -2.4782025814056396, 0.2016480565071106, 
195, 3204584833, 3.3185157775878906, -88.02840423583984, -28.390031814575195, 9.78718090057373, -0.12670010328292847, 0.2420242875814438, 1.1424589157104492, -2.4208269119262695, 0.30331099033355713, 
196, 3204593166, 3.3371472358703613, -88.0315933227539, -28.404369354248047, 9.870445251464844, -0.06022688373923302, 0.18698321282863617, 1.0897959470748901, -2.6058640480041504, 0.43904078006744385, 
197, 3204601499, 3.264888286590576, -88.03497314453125, -28.328115463256836, 9.782781600952148, -0.10585183650255203, 0.26708438992500305, 1.0780645608901978, -2.490036725997925, 0.6175463199615479, 
198, 3204609832, 3.2391672134399414, -88.03636169433594, -28.296844482421875, 9.839213371276855, -0.09544190764427185, 0.23314957320690155, 1.230827808380127, -2.355151891708374, 0.6123978495597839, 
199, 3204618165, 3.129936456680298, -88.0379638671875, -28.18279266357422, 9.796063423156738, -0.07573763281106949, 0.2571773827075958, 1.1713261604309082, -2.303744316101074, 0.7614471316337585, 
200, 3204626498, 3.0572850704193115, -88.03975677490234, -28.10525131225586, 9.777463912963867, -0.14604182541370392, 0.20323793590068817, 1.1534475088119507, -2.403690814971924, 0.8039411306381226, 
201, 3204634831, 2.943791389465332, -88.04306030273438, -27.987533569335938, 9.889500617980957, -0.09479749947786331, 0.2569659352302551, 1.1099544763565063, -2.5289957523345947, 0.7881372570991516, 
202, 3204643164, 2.861804723739624, -88.04515838623047, -27.900123596191406, 9.783288955688477, -0.11032095551490784, 0.2383512705564499, 1.2086459398269653, -2.437117338180542, 0.8449495434761047, 
203, 3204651497, 2.753310441970825, -88.04766082763672, -27.786426544189453, 9.861090660095215, -0.11080463230609894, 0.22353093326091766, 1.2165096998214722, -2.4015650749206543, 0.7617288827896118, 
204, 3204659830, 2.717724561691284, -88.0483627319336, -27.746267318725586, 9.760856628417969, -0.14667749404907227, 0.25809717178344727, 1.1293442249298096, -2.301515579223633, 0.6443644165992737, 
205, 3204668163, 2.646743059158325, -88.05057525634766, -27.670820236206055, 9.836586952209473, -0.10299389064311981, 0.21640841662883759, 1.1266804933547974, -2.3732101917266846, 0.6052771806716919, 
206, 3204676496, 2.6661577224731445, -88.05097198486328, -27.685688018798828, 9.785778999328613, -0.09563840180635452, 0.23411303758621216, 1.1228896379470825, -2.297366142272949, 0.4190104603767395, 
207, 3204684829, 2.6278300285339355, -88.05298614501953, -27.64249610900879, 9.882549285888672, -0.10187561064958572, 0.1944098025560379, 1.1591851711273193, -2.3089442253112793, 0.46939370036125183, 
208, 3204693162, 2.624523401260376, -88.05268096923828, -27.633718490600586, 9.748032569885254, -0.10696812719106674, 0.2389899492263794, 1.2553153038024902, -2.2202675342559814, 0.5117596387863159, 
209, 3204701495, 2.581085443496704, -88.05398559570312, -27.585506439208984, 9.859538078308105, -0.04670188948512077, 0.22248958051204681, 1.153626799583435, -2.25620436668396, 0.487349271774292, 
210, 3204709828, 2.5676019191741943, -88.05328369140625, -27.566499710083008, 9.829334259033203, -0.10253626108169556, 0.2708693742752075, 1.2304694652557373, -2.1162734031677246, 0.5483367443084717, 
211, 3204718161, 2.486593246459961, -88.05328369140625, -27.48033905029297, 9.780848503112793, -0.1129961684346199, 0.19936588406562805, 1.2129491567611694, -2.105490207672119, 0.6370388269424438, 
212, 3204726494, 2.428670883178711, -88.05147552490234, -27.416906356811523, 9.796001434326172, -0.11371272057294846, 0.2829461395740509, 1.237180471420288, -2.0068752765655518, 0.7245626449584961, 
213, 3204734827, 2.318493604660034, -88.05067443847656, -27.301721572875977, 9.80282211303711, -0.10367991030216217, 0.2614201307296753, 1.2068531513214111, -2.0603835582733154, 0.7567854523658752, 
214, 3204743160, 2.234508752822876, -88.0501708984375, -27.21196746826172, 9.818644523620605, -0.10783927887678146, 0.22618313133716583, 1.2782400846481323, -2.1516213417053223, 0.8393401503562927, 
215, 3204751493, 2.1592471599578857, -88.0502700805664, -27.131147384643555, 9.759406089782715, -0.1468977928161621, 0.21549081802368164, 1.247298002243042, -2.0989584922790527, 0.6171109676361084, 
216, 3204759826, 2.121208667755127, -88.04886627197266, -27.088478088378906, 9.842754364013672, -0.1039619892835617, 0.22777941823005676, 1.1330585479736328, -2.0369207859039307, 0.6413676142692566, 
217, 3204768159, 2.0376923084259033, -88.04766082763672, -26.99940299987793, 9.718688011169434, -0.08821486681699753, 0.23339927196502686, 1.238204836845398, -1.9471172094345093, 0.6462087035179138, 
218, 3204776492, 1.9986391067504883, -88.04705810546875, -26.955516815185547, 9.860724449157715, -0.13122498989105225, 0.25784486532211304, 1.1679964065551758, -2.1752376556396484, 0.6521000266075134, 
219, 3204784825, 1.9492297172546387, -88.04685974121094, -26.900352478027344, 9.751192092895508, -0.1349308341741562, 0.23478694260120392, 1.2675590515136719, -2.059615135192871, 0.5118365287780762, 
220, 3204793158, 1.9244929552078247, -88.04586029052734, -26.870969772338867, 9.842496871948242, -0.09532730281352997, 0.2709656059741974, 1.1463779211044312, -2.1265194416046143, 0.5932897925376892, 
221, 3204801491, 1.857515811920166, -88.04716491699219, -26.799882888793945, 9.791143417358398, -0.11640902608633041, 0.30417218804359436, 1.066487193107605, -2.2405028343200684, 0.5834282636642456, 
222, 3204809824, 1.8643665313720703, -88.04685974121094, -26.80161476135254, 9.824277877807617, -0.06735500693321228, 0.21637283265590668, 1.2046502828598022, -2.186021327972412, 0.4672676622867584, 
223, 3204818157, 1.7995153665542603, -88.0474624633789, -26.73178482055664, 9.800516128540039, -0.13317468762397766, 0.2401171177625656, 1.1788054704666138, -2.1836390495300293, 0.576307475566864, 
224, 3204826490, 1.8053940534591675, -88.04635620117188, -26.73318099975586, 9.83533000946045, -0.07663556933403015, 0.21065838634967804, 1.1335707902908325, -2.106335401535034, 0.46698591113090515, 
225, 3204834823, 1.7649058103561401, -88.04785919189453, -26.68883514404297, 9.778035163879395, -0.13140851259231567, 0.26299619674682617, 1.043997883796692, -2.3181140422821045, 0.47674497961997986, 
226, 3204843156, 1.779132604598999, -88.04716491699219, -26.698835372924805, 9.84636402130127, -0.10532629489898682, 0.2834245264530182, 1.1048316955566406, -2.1706273555755615, 0.4349425435066223, 
227, 3204851489, 1.737178087234497, -88.04796600341797, -26.653030395507812, 9.764917373657227, -0.11394895613193512, 0.2682035565376282, 1.042665958404541, -2.1786444187164307, 0.47864046692848206, 
228, 3204859822, 1.7500879764556885, -88.04766082763672, -26.66177749633789, 9.813456535339355, -0.09242440015077591, 0.2102242112159729, 1.0850831270217896, -2.2112770080566406, 0.4390920102596283, 
229, 3204868155, 1.751389741897583, -88.04886627197266, -26.658374786376953, 9.82597827911377, -0.1323411613702774, 0.19098858535289764, 1.1392827033996582, -2.249467611312866, 0.30748608708381653, 
230, 3204876488, 1.7825261354446411, -88.04695892333984, -26.685272216796875, 9.775465965270996, -0.096137136220932, 0.28697896003723145, 1.0968142747879028, -1.9985249042510986, 0.35889381170272827, 
231, 3204884821, 1.76975417137146, -88.04695892333984, -26.668292999267578, 9.814074516296387, -0.137986958026886, 0.2279161512851715, 1.0818299055099487, -2.082411527633667, 0.3578692674636841, 
232, 3204893154, 1.7711615562438965, -88.04685974121094, -26.665496826171875, 9.824851036071777, -0.08980132639408112, 0.26122114062309265, 1.0811384916305542, -2.185995578765869, 0.4860941767692566, 
233, 3204901487, 1.7545497417449951, -88.04566192626953, -26.64521026611328, 9.791586875915527, -0.11182104051113129, 0.2678180932998657, 1.0441770553588867, -2.0269055366516113, 0.3718802332878113, 
234, 3204909820, 1.766384482383728, -88.04545593261719, -26.652624130249023, 9.8069429397583, -0.08360984921455383, 0.23007896542549133, 1.122044324874878, -2.2116355895996094, 0.4447527527809143, 
235, 3204918153, 1.738579511642456, -88.04535675048828, -26.62084197998047, 9.784749984741211, -0.13157472014427185, 0.201400488615036, 1.086824893951416, -2.145678997039795, 0.423954039812088, 
236, 3204926486, 1.7566440105438232, -88.04496002197266, -26.633758544921875, 9.828754425048828, -0.13845771551132202, 0.25990504026412964, 1.1890769004821777, -2.156564950942993, 0.41952279210090637, 
237, 3204934819, 1.7495077848434448, -88.0455551147461, -26.62265396118164, 9.809545516967773, -0.07461146265268326, 0.2958422303199768, 1.0489413738250732, -2.1738290786743164, 0.3389659821987152, 
238, 3204943152, 1.7612414360046387, -88.04515838623047, -26.63005828857422, 9.79165267944336, -0.1308908611536026, 0.26273369789123535, 1.1014761924743652, -2.168757438659668, 0.44457343220710754, 
239, 3204951485, 1.7062896490097046, -88.04635620117188, -26.570859909057617, 9.816547393798828, -0.11320372670888901, 0.19076628983020782, 1.0959692001342773, -2.2503387928009033, 0.5379886031150818, 
240, 3204959818, 1.6853302717208862, -88.04666137695312, -26.546051025390625, 9.809806823730469, -0.09767015278339386, 0.22052522003650665, 1.0379271507263184, -2.267115831375122, 0.5791250467300415, 
241, 3204968151, 1.6653884649276733, -88.04796600341797, -26.522558212280273, 9.798773765563965, -0.07926740497350693, 0.2157028317451477, 1.0089319944381714, -2.269779920578003, 0.39331936836242676, 
242, 3204976484, 1.6740742921829224, -88.04806518554688, -26.52817153930664, 9.807999610900879, -0.10311710089445114, 0.2996998429298401, 0.9470992088317871, -2.226440668106079, 0.4519759714603424, 
243, 3204984817, 1.6404845714569092, -88.05046844482422, -26.49064064025879, 9.80013656616211, -0.11933667212724686, 0.2603481411933899, 1.06430983543396, -2.393214702606201, 0.4537433385848999, 
244, 3204993150, 1.6684634685516357, -88.05247497558594, -26.5147705078125, 9.836155891418457, -0.08957263827323914, 0.24330124258995056, 1.0348279476165771, -2.4711334705352783, 0.38517409563064575, 
245, 3205001483, 1.627626657485962, -88.0545883178711, -26.471466064453125, 9.78378963470459, -0.1197921484708786, 0.19167420268058777, 0.8912089467048645, -2.388373851776123, 0.47943446040153503, 
246, 3205009816, 1.6289206743240356, -88.05590057373047, -26.468835830688477, 9.79240608215332, -0.08621632307767868, 0.22187639772891998, 1.0553193092346191, -2.3763866424560547, 0.49108895659446716, 
247, 3205018149, 1.571438193321228, -88.05931854248047, -26.407453536987305, 9.852285385131836, -0.1203206405043602, 0.20531117916107178, 1.0566256046295166, -2.530686378479004, 0.5541511178016663, 
248, 3205026482, 1.5708343982696533, -88.06073760986328, -26.402568817138672, 9.81240177154541, -0.10017351061105728, 0.24756239354610443, 1.0820605754852295, -2.366499185562134, 0.4985683262348175, 
249, 3205034815, 1.4956157207489014, -88.06255340576172, -26.323667526245117, 9.770041465759277, -0.10415679216384888, 0.2417859137058258, 1.0524249076843262, -2.3801259994506836, 0.6215166449546814, 
250, 3205043148, 1.439981460571289, -88.06478118896484, -26.26349639892578, 9.867583274841309, -0.08701979368925095, 0.25651636719703674, 1.1040376424789429, -2.455022096633911, 0.7262020707130432, 
251, 3205051481, 1.3776066303253174, -88.06832122802734, -26.197484970092773, 9.78251838684082, -0.11078230291604996, 0.2581983804702759, 1.020279049873352, -2.55084490776062, 0.5736179947853088, 
252, 3205059814, 1.3384982347488403, -88.06883239746094, -26.154415130615234, 9.838793754577637, -0.08662975579500198, 0.23868636786937714, 1.0599554777145386, -2.283278703689575, 0.6523049473762512, 
253, 3205068147, 1.2716115713119507, -88.07176971435547, -26.083621978759766, 9.774101257324219, -0.1306925117969513, 0.233039990067482, 1.0616973638534546, -2.4828388690948486, 0.5902416110038757, 
254, 3205076480, 1.2382456064224243, -88.07288360595703, -26.045045852661133, 9.861865043640137, -0.09714650362730026, 0.22947968542575836, 1.2093119621276855, -2.3801770210266113, 0.6348615884780884, 
255, 3205084813, 1.1484533548355103, -88.07542419433594, -25.950763702392578, 9.769327163696289, -0.12011788040399551, 0.2180526703596115, 1.1081359386444092, -2.375951051712036, 0.6803781986236572, 
256, 3205093146, 1.1307286024093628, -88.07633972167969, -25.92876434326172, 9.8685884475708, -0.11554422974586487, 0.261198490858078, 1.095610499382019, -2.3350958824157715, 0.5673424601554871, 
257, 3205101479, 1.089658498764038, -88.07796478271484, -25.883028030395508, 9.739837646484375, -0.0926961600780487, 0.20716971158981323, 1.1407427787780762, -2.30961012840271, 0.4839938282966614, 
258, 3205109812, 1.0903459787368774, -88.07898712158203, -25.87941551208496, 9.842184066772461, -0.12237606942653656, 0.19054555892944336, 1.113668441772461, -2.397927761077881, 0.49313807487487793, 
259, 3205118145, 1.045809030532837, -88.08102416992188, -25.831079483032227, 9.769864082336426, -0.09530691802501678, 0.23994185030460358, 1.0355195999145508, -2.3186259269714355, 0.49590444564819336, 
260, 3205126478, 1.0200568437576294, -88.08193969726562, -25.801189422607422, 9.857291221618652, -0.12041082233190536, 0.24015071988105774, 1.0720453262329102, -2.3484413623809814, 0.5977978706359863, 
261, 3205134811, 0.9517762064933777, -88.0833740234375, -25.72883415222168, 9.808016777038574, -0.1143302470445633, 0.19374756515026093, 1.073274850845337, -2.2790777683258057, 0.5918553471565247, 
262, 3205143144, 0.9334184527397156, -88.0838851928711, -25.70576286315918, 9.792937278747559, -0.12754839658737183, 0.2543880343437195, 1.1439701318740845, -2.2956244945526123, 0.5691098570823669, 
263, 3205151477, 0.8959829211235046, -88.08541870117188, -25.66427993774414, 9.810591697692871, -0.10364915430545807, 0.24056343734264374, 1.0738894939422607, -2.320496082305908, 0.46647363901138306, 
264, 3205159810, 0.9138934016227722, -88.08470153808594, -25.677881240844727, 9.828792572021484, -0.09206382930278778, 0.26286759972572327, 1.0981206893920898, -2.1443214416503906, 0.4211364686489105, 
265, 3205168143, 0.888835072517395, -88.08541870117188, -25.64804458618164, 9.802539825439453, -0.11209769546985626, 0.2595236003398895, 1.1530120372772217, -2.182076930999756, 0.41770416498184204, 
266, 3205176476, 0.8997634649276733, -88.08552551269531, -25.65443992614746, 9.809825897216797, -0.09452062100172043, 0.23579351603984833, 1.1357736587524414, -2.248929738998413, 0.4517454504966736, 
267, 3205184809, 0.8529884815216064, -88.08562469482422, -25.60243797302246, 9.828453063964844, -0.10414499044418335, 0.25813090801239014, 1.202883005142212, -2.128081798553467, 0.5068929195404053, 
268, 3205193142, 0.8621546626091003, -88.08531951904297, -25.607044219970703, 9.780145645141602, -0.0884210392832756, 0.2175765186548233, 1.1259379386901855, -2.1882498264312744, 0.45663779973983765, 
269, 3205201475, 0.8095592856407166, -88.08644104003906, -25.550460815429688, 9.821096420288086, -0.09914428740739822, 0.2313537895679474, 1.0553960800170898, -2.219857692718506, 0.5276404023170471, 
270, 3205209808, 0.8230119943618774, -88.08674621582031, -25.5592041015625, 9.803890228271484, -0.09883774071931839, 0.2533991038799286, 1.147453784942627, -2.26283860206604, 0.4425499141216278, 
271, 3205218141, 0.764119029045105, -88.087158203125, -25.496049880981445, 9.830609321594238, -0.08897985517978668, 0.27218949794769287, 1.1157687902450562, -2.2075371742248535, 0.5531265735626221, 
272, 3205226474, 0.7406713962554932, -88.08797454833984, -25.468061447143555, 9.80776309967041, -0.11608485132455826, 0.23079663515090942, 1.1161274909973145, -2.3258495330810547, 0.5894219875335693, 
273, 3205234807, 0.6962742805480957, -88.08910369873047, -25.419328689575195, 9.866238594055176, -0.09246169775724411, 0.2213786095380783, 1.1013737916946411, -2.2259795665740967, 0.496365487575531, 
274, 3205243140, 0.7246488332748413, -88.08879089355469, -25.44294548034668, 9.778435707092285, -0.10228114575147629, 0.21231357753276825, 1.1527045965194702, -2.2115843296051025, 0.3814344108104706, 
275, 3205251473, 0.6854377388954163, -88.08879089355469, -25.39968490600586, 9.831804275512695, -0.10062438249588013, 0.21557341516017914, 1.0837767124176025, -2.133538007736206, 0.47546425461769104, 
276, 3205259806, 0.7010201811790466, -88.0882797241211, -25.410816192626953, 9.809401512145996, -0.09709219634532928, 0.21845944225788116, 1.1155896186828613, -2.176262378692627, 0.4299733340740204, 
277, 3205268139, 0.6713177561759949, -88.08848571777344, -25.37692642211914, 9.849784851074219, -0.0997222438454628, 0.20091892778873444, 1.082188606262207, -2.1321544647216797, 0.4368892014026642, 
278, 3205276472, 0.683428943157196, -88.08735656738281, -25.384674072265625, 9.787495613098145, -0.11293786764144897, 0.25229254364967346, 1.1236581802368164, -2.1210379600524902, 0.44523945450782776, 
279, 3205284805, 0.6245213150978088, -88.08633422851562, -25.32135009765625, 9.822141647338867, -0.09551218897104263, 0.23412753641605377, 1.132571816444397, -2.0305426120758057, 0.5547659397125244, 
280, 3205293138, 0.6130884885787964, -88.08531951904297, -25.305055618286133, 9.793107032775879, -0.09847800433635712, 0.26459673047065735, 1.1642054319381714, -2.108154058456421, 0.538654625415802, 
281, 3205301471, 0.53549724817276, -88.0877685546875, -25.222389221191406, 9.781988143920898, -0.10338274389505386, 0.26633352041244507, 1.1548306941986084, -2.3270277976989746, 0.6361423134803772, 
282, 3205309804, 0.5127749443054199, -88.08869171142578, -25.19530487060547, 9.823281288146973, -0.09934380650520325, 0.25844305753707886, 1.1086225509643555, -2.328948736190796, 0.5849138498306274, 
283, 3205318137, 0.4063691794872284, -88.0904312133789, -25.084577560424805, 9.801614761352539, -0.09255875647068024, 0.21402189135551453, 1.1213271617889404, -2.383225440979004, 0.747487485408783, 
284, 3205326470, 0.34496191143989563, -88.0904312133789, -25.018604278564453, 9.824564933776855, -0.10137332230806351, 0.24431447684764862, 1.1402047872543335, -2.2384791374206543, 0.7410838603973389, 
285, 3205334803, 0.23888082802295685, -88.09197235107422, -24.90742301940918, 9.801677703857422, -0.11663119494915009, 0.211392343044281, 1.1672791242599487, -2.2904763221740723, 0.7471288442611694, 
286, 3205343136, 0.15762042999267578, -88.09309387207031, -24.821487426757812, 9.830099105834961, -0.11234113574028015, 0.28964748978614807, 1.1502200365066528, -2.3530774116516113, 0.8197964429855347, 
287, 3205351469, 0.06317138671875, -88.09474182128906, -24.72208023071289, 9.79075813293457, -0.13566839694976807, 0.23797573149204254, 1.1627711057662964, -2.292909622192383, 0.6997681260108948, 
288, 3205359802, 0.03360617533326149, -88.09474182128906, -24.68758773803711, 9.810643196105957, -0.11526967585086823, 0.2638571858406067, 1.176039218902588, -2.2418088912963867, 0.6137811541557312, 
289, 3205368135, -0.01147838681936264, -88.09648895263672, -24.63784408569336, 9.802651405334473, -0.12436632066965103, 0.24971330165863037, 1.1402816772460938, -2.3368635177612305, 0.5037935972213745, 
290, 3205376468, 0.008698554709553719, -88.09638977050781, -24.6539249420166, 9.8010835647583, -0.11180807650089264, 0.26560622453689575, 1.078756332397461, -2.219268798828125, 0.41122373938560486, 
291, 3205384801, -0.019761251285672188, -88.09813690185547, -24.622028350830078, 9.801865577697754, -0.10912486165761948, 0.24055662751197815, 1.0191776752471924, -2.3798954486846924, 0.4316895306110382, 
292, 3205393134, 0.019660882651805878, -88.09823608398438, -24.658498764038086, 9.836522102355957, -0.11791156977415085, 0.23068885505199432, 0.9424628019332886, -2.258714199066162, 0.33135852217674255, 
293, 3205401467, 0.0029399271588772535, -88.10060119628906, -24.63811492919922, 9.793944358825684, -0.11987172067165375, 0.21177449822425842, 0.978809654712677, -2.313580274581909, 0.38502037525177, 
294, 3205409800, 0.04429229721426964, -88.09999084472656, -24.675914764404297, 9.807515144348145, -0.07521504908800125, 0.21057471632957458, 1.0232758522033691, -2.1619439125061035, 0.32695287466049194, 
295, 3205418133, 0.030386578291654587, -88.10071563720703, -24.658403396606445, 9.802188873291016, -0.10831526666879654, 0.28858914971351624, 1.0301916599273682, -2.2459328174591064, 0.3747234344482422, 
296, 3205426466, 0.027361754328012466, -88.10009002685547, -24.64971160888672, 9.809134483337402, -0.10310301184654236, 0.20427538454532623, 1.2667392492294312, -2.1706786155700684, 0.5100947022438049, 
297, 3205434799, -0.053623445332050323, -88.10246276855469, -24.563608169555664, 9.807251930236816, -0.10531563311815262, 0.2166919857263565, 1.184773564338684, -2.3838143348693848, 0.6488213539123535, 
298, 3205443132, -0.06900827586650848, -88.10143280029297, -24.54375457763672, 9.843270301818848, -0.10529983043670654, 0.22386059165000916, 1.1386680603027344, -2.1350748538970947, 0.5547403693199158, 
299, 3205451465, -0.11638183891773224, -88.10286712646484, -24.491601943969727, 9.799112319946289, -0.11074431240558624, 0.25979331135749817, 1.145686149597168, -2.2609171867370605, 0.513526976108551, 
300, 3205459798, -0.14162516593933105, -88.10235595703125, -24.46247100830078, 9.815535545349121, -0.0895518884062767, 0.2441578209400177, 1.044407606124878, -2.168731451034546, 0.5921370983123779, 
301, 3205468131, -0.16660147905349731, -88.10328674316406, -24.43372917175293, 9.797524452209473, -0.09196474403142929, 0.2380114048719406, 1.0399508476257324, -2.2505948543548584, 0.42054733633995056, 
302, 3205476464, -0.15918037295341492, -88.10401153564453, -24.437313079833984, 9.828453063964844, -0.10404825210571289, 0.23238247632980347, 1.0501964092254639, -2.325465202331543, 0.46030059456825256, 
303, 3205484797, -0.19122177362442017, -88.10576629638672, -24.401247024536133, 9.825601577758789, -0.11705401539802551, 0.2665787935256958, 1.0596481561660767, -2.311095714569092, 0.4506441056728363, 
304, 3205493130, -0.17732860147953033, -88.10545349121094, -24.410659790039062, 9.814913749694824, -0.10867461562156677, 0.24717891216278076, 1.1059330701828003, -2.188044786453247, 0.43822118639945984, 
305, 3205501463, -0.19355839490890503, -88.10638427734375, -24.389616012573242, 9.7957763671875, -0.09291615337133408, 0.22441598773002625, 1.181520700454712, -2.2375829219818115, 0.39029693603515625, 
306, 3205509796, -0.15988248586654663, -88.10679626464844, -24.418766021728516, 9.80907917022705, -0.11836361885070801, 0.21508324146270752, 1.1245545148849487, -2.2759015560150146, 0.3612503707408905, 
307, 3205518129, -0.16395647823810577, -88.10834503173828, -24.409990310668945, 9.809952735900879, -0.08811675757169724, 0.21725180745124817, 1.1513214111328125, -2.3197786808013916, 0.34268003702163696, 
308, 3205526462, -0.1474943310022354, -88.1087646484375, -24.42222023010254, 9.811626434326172, -0.09065251797437668, 0.23212088644504547, 1.0686898231506348, -2.244062900543213, 0.42784735560417175, 
309, 3205534795, -0.16611340641975403, -88.10958862304688, -24.39898109436035, 9.800836563110352, -0.08867062628269196, 0.2493773102760315, 1.1654349565505981, -2.298314332962036, 0.39969730377197266, 
310, 3205543128, -0.17639121413230896, -88.1109390258789, -24.383981704711914, 9.81254768371582, -0.09002073109149933, 0.23124858736991882, 1.1584933996200562, -2.410658121109009, 0.5341464281082153, 
311, 3205551461, -0.24381497502326965, -88.11290740966797, -24.312021255493164, 9.812154769897461, -0.11357636004686356, 0.23582543432712555, 1.1321364641189575, -2.350874423980713, 0.5939301252365112, 
312, 3205559794, -0.24236764013767242, -88.11466979980469, -24.30902862548828, 9.784193992614746, -0.09705846011638641, 0.2205103039741516, 1.098351240158081, -2.4283063411712646, 0.4857611358165741, 
313, 3205568127, -0.34333857893943787, -88.11518859863281, -24.202682495117188, 9.84442138671875, -0.10050544887781143, 0.2485968917608261, 1.2322626113891602, -2.2009289264678955, 0.729788064956665, 
314, 3205576460, -0.35948875546455383, -88.1155014038086, -24.181854248046875, 9.789134979248047, -0.10802904516458511, 0.2192794233560562, 1.1295236349105835, -2.249877691268921, 0.5574297904968262, 
315, 3205584793, -0.4601975083351135, -88.1183090209961, -24.076133728027344, 9.816320419311523, -0.10285370796918869, 0.215887188911438, 1.1792410612106323, -2.455124616622925, 0.7237430214881897, 
316, 3205593126, -0.5027192234992981, -88.118408203125, -24.029155731201172, 9.81104564666748, -0.13921016454696655, 0.23247215151786804, 1.1201746463775635, -2.265143632888794, 0.6610137820243835, 
317, 3205601459, -0.5790004730224609, -88.12017822265625, -23.948501586914062, 9.790534019470215, -0.0938495323061943, 0.2456028312444687, 1.1234276294708252, -2.3553059101104736, 0.6268187761306763, 
318, 3205609792, -0.6143631935119629, -88.12007904052734, -23.908472061157227, 9.832688331604004, -0.12055539339780807, 0.21861791610717773, 1.1187658309936523, -2.188019275665283, 0.6328893303871155, 
319, 3205618125, -0.6850451231002808, -88.12017822265625, -23.83308219909668, 9.765639305114746, -0.10933927446603775, 0.2767220139503479, 1.1432785987854004, -2.147036552429199, 0.606685996055603, 
320, 3205626458, -0.7038166522979736, -88.12039184570312, -23.810277938842773, 9.833791732788086, -0.11716970801353455, 0.2671855092048645, 1.0594687461853027, -2.240041732788086, 0.5660873651504517, 
321, 3205634791, -0.7266116142272949, -88.12059783935547, -23.7824649810791, 9.795355796813965, -0.11156647652387619, 0.2338264286518097, 1.1945070028305054, -2.140530586242676, 0.4197532534599304, 
322, 3205643124, -0.7176319360733032, -88.11956024169922, -23.78681755065918, 9.818829536437988, -0.09586934000253677, 0.21527627110481262, 1.1297543048858643, -2.118476629257202, 0.4599676728248596, 
323, 3205651457, -0.7579956650733948, -88.12122344970703, -23.742000579833984, 9.816116333007812, -0.1040709987282753, 0.271769642829895, 1.1284736394882202, -2.3414998054504395, 0.48627346754074097, 
324, 3205659790, -0.7456731796264648, -88.12299346923828, -23.74969482421875, 9.841480255126953, -0.10034714639186859, 0.2700917720794678, 1.145993709564209, -2.4512312412261963, 0.44421491026878357, 
325, 3205668123, -0.7834952473640442, -88.12518310546875, -23.70676612854004, 9.80528450012207, -0.08510876446962357, 0.24779145419597626, 1.1889230012893677, -2.370494842529297, 0.4771035611629486, 
326, 3205676456, -0.8018543720245361, -88.12779235839844, -23.68355369567871, 9.820241928100586, -0.12457238137722015, 0.21733711659908295, 1.1524229049682617, -2.520850658416748, 0.5627064108848572, 
327, 3205684789, -0.8671863079071045, -88.12998962402344, -23.6138858795166, 9.804264068603516, -0.10879974812269211, 0.22548294067382812, 1.1021422147750854, -2.3992598056793213, 0.5813535451889038, 
328, 3205693122, -0.9571015238761902, -88.1305160522461, -23.519285202026367, 9.835970878601074, -0.12630011141300201, 0.23445923626422882, 1.1394108533859253, -2.2952401638031006, 0.844821572303772, 
329, 3205701455, -1.0597546100616455, -88.13260650634766, -23.411945343017578, 9.771463394165039, -0.1187678799033165, 0.2091861516237259, 1.1531912088394165, -2.4127070903778076, 0.7284303903579712, 
330, 3205709788, -1.1169556379318237, -88.13386535644531, -23.349306106567383, 9.820905685424805, -0.1147083193063736, 0.22315800189971924, 1.229111909866333, -2.3689839839935303, 0.7171344757080078, 
331, 3205718121, -1.2023169994354248, -88.13628387451172, -23.259389877319336, 9.807451248168945, -0.1248558759689331, 0.22173751890659332, 1.140230417251587, -2.470390558242798, 0.6587597727775574, 
332, 3205726454, -1.2792710065841675, -88.13701629638672, -23.178083419799805, 9.808719635009766, -0.11061904579401016, 0.22965922951698303, 1.0867736339569092, -2.288862466812134, 0.7911853790283203, 
333, 3205734787, -1.376115083694458, -88.13848876953125, -23.076757431030273, 9.785684585571289, -0.11118492484092712, 0.2587070167064667, 1.1352869272232056, -2.368753433227539, 0.704404354095459, 
334, 3205743120, -1.3972793817520142, -88.13996124267578, -23.051265716552734, 9.825544357299805, -0.11842281371355057, 0.23348677158355713, 1.0972497463226318, -2.3971595764160156, 0.5694172978401184, 
335, 3205751453, -1.4497278928756714, -88.14227294921875, -22.994089126586914, 9.787534713745117, -0.10470181703567505, 0.22683967649936676, 1.1283966302871704, -2.3601467609405518, 0.5313544869422913, 
336, 3205759786, -1.4710657596588135, -88.14237976074219, -22.968181610107422, 9.808777809143066, -0.11908665299415588, 0.225314199924469, 1.1417673826217651, -2.288478374481201, 0.574642539024353, 
337, 3205768119, -1.5142161846160889, -88.14280700683594, -22.920780181884766, 9.806331634521484, -0.10558454692363739, 0.2638850510120392, 1.091256022453308, -2.1605606079101562, 0.4989780783653259, 
338, 3205776452, -1.5242372751235962, -88.14395904541016, -22.905902862548828, 9.815696716308594, -0.10147284716367722, 0.24008819460868835, 1.1598767042160034, -2.357534408569336, 0.5313289165496826, 
339, 3205784785, -1.5624457597732544, -88.1443862915039, -22.863780975341797, 9.837746620178223, -0.09002538025379181, 0.20835012197494507, 1.0612618923187256, -2.2127368450164795, 0.4759252965450287, 
340, 3205793118, -1.5785508155822754, -88.1434326171875, -22.842683792114258, 9.762053489685059, -0.1286146342754364, 0.20776546001434326, 1.1781907081604004, -2.1062841415405273, 0.5620403289794922, 
341, 3205801451, -1.6255098581314087, -88.14480590820312, -22.791419982910156, 9.825713157653809, -0.09313075989484787, 0.2409869134426117, 1.0806262493133545, -2.2782583236694336, 0.5097104907035828, 
342, 3205809784, -1.617573618888855, -88.14491271972656, -22.794862747192383, 9.805092811584473, -0.11355767399072647, 0.20861542224884033, 1.1152822971343994, -2.2101500034332275, 0.46268272399902344, 
343, 3205818117, -1.6600698232650757, -88.14607238769531, -22.748226165771484, 9.797545433044434, -0.11087986081838608, 0.24563360214233398, 1.079909086227417, -2.2866084575653076, 0.4943418800830841, 
344, 3205826450, -1.6395453214645386, -88.14575958251953, -22.76460075378418, 9.831331253051758, -0.11003269255161285, 0.2557132840156555, 1.0916147232055664, -2.1919639110565186, 0.4123251438140869, 
345, 3205834783, -1.6611868143081665, -88.14691925048828, -22.73871421813965, 9.81810474395752, -0.09403630346059799, 0.24371720850467682, 1.084826946258545, -2.2563836574554443, 0.4133753478527069, 
346, 3205843116, -1.668458104133606, -88.14786529541016, -22.72754669189453, 9.802305221557617, -0.08346037566661835, 0.21532922983169556, 1.045124888420105, -2.3521039485931396, 0.5154224634170532, 
347, 3205851449, -1.7171489000320435, -88.14797973632812, -22.674955368041992, 9.803297996520996, -0.10761338472366333, 0.2552509009838104, 1.075272798538208, -2.207767963409424, 0.5197768807411194, 
348, 3205859782, -1.705361008644104, -88.14923858642578, -22.682706832885742, 9.813652038574219, -0.11045609414577484, 0.23337340354919434, 1.0565232038497925, -2.3507461547851562, 0.44178149104118347, 
349, 3205868115, -1.7324124574661255, -88.15061950683594, -22.651742935180664, 9.830696105957031, -0.11517459154129028, 0.22069008648395538, 1.0558571815490723, -2.299133777618408, 0.43225300312042236, 
350, 3205876448, -1.7170029878616333, -88.15104675292969, -22.663795471191406, 9.834352493286133, -0.1093376874923706, 0.22394797205924988, 0.9851362109184265, -2.283842086791992, 0.4283340275287628, 
351, 3205884781, -1.7525997161865234, -88.15177917480469, -22.62409019470215, 9.815145492553711, -0.11292784661054611, 0.21427710354328156, 1.0779366493225098, -2.213146686553955, 0.4689069390296936, 
352, 3205893114, -1.7476003170013428, -88.15220642089844, -22.625869750976562, 9.835101127624512, -0.13101239502429962, 0.21369989216327667, 0.9810893535614014, -2.2886319160461426, 0.4670115113258362, 
353, 3205901447, -1.8124446868896484, -88.15231323242188, -22.55642318725586, 9.779073715209961, -0.09590894728899002, 0.229196697473526, 1.126783013343811, -2.1471900939941406, 0.587577760219574, 
354, 3205909780, -1.8618608713150024, -88.15337371826172, -22.50246238708496, 9.797183990478516, -0.09754326194524765, 0.23349878191947937, 1.116998314857483, -2.342729091644287, 0.6801219582557678, 
355, 3205918113, -1.9250017404556274, -88.15496826171875, -22.43411636352539, 9.821784019470215, -0.09815453737974167, 0.24405437707901, 1.2007567882537842, -2.304333448410034, 0.5768453478813171, 
356, 3205926446, -1.9728631973266602, -88.15581512451172, -22.382038116455078, 9.775853157043457, -0.1045856848359108, 0.22654487192630768, 1.085262417793274, -2.353154420852661, 0.6724377274513245, 
357, 3205934779, -2.071242094039917, -88.15814971923828, -22.278589248657227, 9.839792251586914, -0.09648633003234863, 0.23968298733234406, 1.200116515159607, -2.4456472396850586, 0.7068375945091248, 
358, 3205943112, -2.086883544921875, -88.15953063964844, -22.2584171295166, 9.790797233581543, -0.11760115623474121, 0.2389642745256424, 1.1150261163711548, -2.3913447856903076, 0.5472608804702759, 
359, 3205951445, -2.1320648193359375, -88.16101837158203, -22.209285736083984, 9.817626953125, -0.1085277572274208, 0.21623986959457397, 1.06144118309021, -2.3270790576934814, 0.5026153922080994, 
360, 3205959778, -2.1282622814178467, -88.16133880615234, -22.2080078125, 9.834307670593262, -0.10058623552322388, 0.2327430099248886, 1.1966842412948608, -2.3001585006713867, 0.4775134325027466, 
361, 3205968111, -2.161278486251831, -88.16314697265625, -22.1705322265625, 9.793986320495605, -0.1224859207868576, 0.22449712455272675, 1.0951749086380005, -2.3051271438598633, 0.4574317932128906, 
362, 3205976444, -2.174198865890503, -88.16410064697266, -22.153423309326172, 9.812795639038086, -0.10566741973161697, 0.2562665045261383, 1.1017067432403564, -2.3807663917541504, 0.5360931754112244, 
363, 3205984777, -2.2329094409942627, -88.16539001464844, -22.09042739868164, 9.825206756591797, -0.11084011942148209, 0.21961133182048798, 1.0961741209030151, -2.3010036945343018, 0.5550220608711243, 
364, 3205993110, -2.257754325866699, -88.16539001464844, -22.061201095581055, 9.792949676513672, -0.11945194751024246, 0.23224756121635437, 1.122479796409607, -2.2601230144500732, 0.5881412625312805, 
365, 3206001443, -2.3368513584136963, -88.16645050048828, -21.97749900817871, 9.805662155151367, -0.1096603274345398, 0.23211133480072021, 1.1242984533309937, -2.2480335235595703, 0.6379353404045105, 
366, 3206009776, -2.3757574558258057, -88.16548919677734, -21.933935165405273, 9.801752090454102, -0.11775097250938416, 0.22637274861335754, 1.144405722618103, -2.1455507278442383, 0.6472589373588562, 
367, 3206018109, -2.4445536136627197, -88.16624450683594, -21.859987258911133, 9.79002857208252, -0.11370620131492615, 0.2199588418006897, 1.1796764135360718, -2.1798481941223145, 0.6023315787315369, 
368, 3206026442, -2.456838369369507, -88.16634368896484, -21.842668533325195, 9.792362213134766, -0.10061759501695633, 0.22301127016544342, 1.182494044303894, -2.247495651245117, 0.5412416458129883, 
369, 3206034775, -2.5196216106414795, -88.16719818115234, -21.77498435974121, 9.812005996704102, -0.09811020642518997, 0.23960499465465546, 1.1582629680633545, -2.240067481994629, 0.5790994167327881, 
370, 3206043108, -2.526956796646118, -88.16603088378906, -21.763553619384766, 9.803376197814941, -0.10357700288295746, 0.2380785048007965, 1.0806773900985718, -2.077186346054077, 0.5243105888366699, 
371, 3206051441, -2.5691981315612793, -88.16603088378906, -21.716663360595703, 9.813150405883789, -0.09280094504356384, 0.22976645827293396, 1.1496055126190186, -2.1849968433380127, 0.5009503960609436, 
372, 3206059774, -2.545137643814087, -88.16548919677734, -21.736446380615234, 9.800992965698242, -0.11247172951698303, 0.23374614119529724, 1.0920500755310059, -2.161790132522583, 0.40238678455352783, 
373, 3206068107, -2.5765175819396973, -88.16656494140625, -21.700794219970703, 9.802569389343262, -0.10687701404094696, 0.25623375177383423, 1.0957130193710327, -2.249288558959961, 0.4533335864543915, 
374, 3206076440, -2.551622152328491, -88.16634368896484, -21.721500396728516, 9.817185401916504, -0.09358597546815872, 0.2342044562101364, 1.0790380239486694, -2.1743409633636475, 0.3989288806915283, 
375, 3206084773, -2.6073436737060547, -88.16698455810547, -21.66214370727539, 9.809151649475098, -0.08366476744413376, 0.21909956634044647, 1.020714521408081, -2.2271578311920166, 0.5465182065963745, 
376, 3206093106, -2.6451120376586914, -88.16613006591797, -21.619956970214844, 9.807828903198242, -0.11066576093435287, 0.23853778839111328, 1.1070345640182495, -2.115044355392456, 0.6422129273414612, 
377, 3206101439, -2.727792978286743, -88.16656494140625, -21.532926559448242, 9.798138618469238, -0.08899807184934616, 0.2506844699382782, 1.0915377140045166, -2.2035412788391113, 0.6546870470046997, 
378, 3206109772, -2.7745959758758545, -88.16656494140625, -21.482091903686523, 9.805487632751465, -0.10138104856014252, 0.21926461160182953, 1.0766558647155762, -2.244908332824707, 0.6692359447479248, 
379, 3206118105, -2.890509605407715, -88.1670913696289, -21.36135482788086, 9.833134651184082, -0.09040670096874237, 0.1846093088388443, 1.1565979719161987, -2.2234694957733154, 0.7843464612960815, 
380, 3206126438, -2.9831197261810303, -88.16580963134766, -21.263107299804688, 9.816498756408691, -0.10814980417490005, 0.22387829422950745, 1.2504229545593262, -2.09775447845459, 0.861112117767334, 
381, 3206134771, -3.0766308307647705, -88.16548919677734, -21.165369033813477, 9.804080963134766, -0.09135454148054123, 0.23483698070049286, 1.104729175567627, -2.126032829284668, 0.7007158398628235, 
382, 3206143104, -3.121295928955078, -88.16432189941406, -21.115936279296875, 9.76803207397461, -0.10062375664710999, 0.2667461633682251, 1.1519361734390259, -2.1318469047546387, 0.6707727909088135, 
383, 3206151437, -3.1883606910705566, -88.16603088378906, -21.0433292388916, 9.825552940368652, -0.09525694698095322, 0.29279255867004395, 1.250346064567566, -2.341089963912964, 0.593212902545929, 
384, 3206159770, -3.2127254009246826, -88.16539001464844, -21.01435089111328, 9.771732330322266, -0.08667430281639099, 0.20260584354400635, 1.1394619941711426, -2.1821022033691406, 0.5897037386894226, 
385, 3206168103, -3.265655517578125, -88.16624450683594, -20.95638656616211, 9.831911087036133, -0.11555754393339157, 0.22901639342308044, 1.1790874004364014, -2.23189640045166, 0.5417795181274414, 
386, 3206176436, -3.2795231342315674, -88.1667709350586, -20.937585830688477, 9.821451187133789, -0.12209814786911011, 0.21228206157684326, 1.1696099042892456, -2.27313494682312, 0.5459288954734802, 
387, 3206184769, -3.3082964420318604, -88.1676254272461, -20.90460777282715, 9.816637992858887, -0.10028057545423508, 0.2654135823249817, 1.1031410694122314, -2.301439046859741, 0.4428061246871948, 
388, 3206193102, -3.298027753829956, -88.16741943359375, -20.910005569458008, 9.815279960632324, -0.11540182679891586, 0.26602452993392944, 1.1627453565597534, -2.1890947818756104, 0.4574317932128906, 
389, 3206201435, -3.3613080978393555, -88.16859436035156, -20.841800689697266, 9.85423755645752, -0.08286894857883453, 0.24446441233158112, 1.1591850519180298, -2.2445497512817383, 0.5816864967346191, 
390, 3206209768, -3.3848631381988525, -88.16815948486328, -20.813213348388672, 9.793517112731934, -0.1112828329205513, 0.24495559930801392, 1.176013708114624, -2.1666057109832764, 0.5886023640632629, 
391, 3206218101, -3.476243019104004, -88.16869354248047, -20.716997146606445, 9.805529594421387, -0.10591648519039154, 0.22475695610046387, 1.1590569019317627, -2.2136332988739014, 0.6919301152229309, 
392, 3206226434, -3.522831439971924, -88.16859436035156, -20.665851593017578, 9.810247421264648, -0.1014312207698822, 0.2555098533630371, 1.1319314241409302, -2.2395806312561035, 0.6715924143791199, 
393, 3206234767, -3.6256167888641357, -88.16859436035156, -20.558349609375, 9.805388450622559, -0.1101725697517395, 0.24220815300941467, 1.1628479957580566, -2.2082033157348633, 0.7350645661354065, 
394, 3206243100, -3.6838126182556152, -88.16806030273438, -20.49416732788086, 9.803573608398438, -0.12811167538166046, 0.21666598320007324, 1.2864365577697754, -2.1494956016540527, 0.7258946299552917, 
395, 3206251433, -3.7477426528930664, -88.16730499267578, -20.425777435302734, 9.843568801879883, -0.12268321216106415, 0.21426130831241608, 1.1131306886672974, -2.07057785987854, 0.5941606163978577, 
396, 3206259766, -3.755420446395874, -88.16580963134766, -20.41348648071289, 9.820576667785645, -0.09336311370134354, 0.2510177791118622, 1.1391034126281738, -2.042556047439575, 0.5358881950378418, 
397, 3206268099, -3.782787561416626, -88.16613006591797, -20.381072998046875, 9.797252655029297, -0.12275899201631546, 0.2545430362224579, 1.180034875869751, -2.1741106510162354, 0.45036229491233826, 
398, 3206276432, -3.7581989765167236, -88.16603088378906, -20.401674270629883, 9.793646812438965, -0.12609077990055084, 0.23811422288417816, 1.0586234331130981, -2.1994683742523193, 0.3970077931880951, 
399, 3206284765, -3.784787178039551, -88.16571044921875, -20.371063232421875, 9.83638858795166, -0.10726951062679291, 0.2574799358844757, 1.075836181640625, -2.1383790969848633, 0.4465457499027252, 
400, 3206293098, -3.7902324199676514, -88.16571044921875, -20.361129760742188, 9.770365715026855, -0.11449996381998062, 0.2535388767719269, 1.1177668571472168, -2.235456943511963, 0.5129379034042358, 
401, 3206301431, -3.8199753761291504, -88.16656494140625, -20.326974868774414, 9.809531211853027, -0.10852921009063721, 0.2585256099700928, 1.0894887447357178, -2.185534715652466, 0.4562535881996155, 
402, 3206309764, -3.838404893875122, -88.16624450683594, -20.304092407226562, 9.816364288330078, -0.11067613214254379, 0.24733790755271912, 1.1150516271591187, -2.203080415725708, 0.5645249485969543, 
403, 3206318097, -3.898008108139038, -88.16624450683594, -20.240497589111328, 9.808918952941895, -0.09987318515777588, 0.24158106744289398, 1.0627474784851074, -2.1462936401367188, 0.5742583274841309, 
404, 3206326430, -3.8884711265563965, -88.16548919677734, -20.245786666870117, 9.81245231628418, -0.10078924149274826, 0.22371166944503784, 1.0867478847503662, -2.1460888385772705, 0.4606592357158661, 
405, 3206334763, -3.928394079208374, -88.16645050048828, -20.202491760253906, 9.800997734069824, -0.11681034415960312, 0.23292183876037598, 1.0112885236740112, -2.295445442199707, 0.48448047041893005, 
406, 3206343096, -3.943669319152832, -88.16666412353516, -20.183320999145508, 9.782050132751465, -0.12132345139980316, 0.23932760953903198, 1.0380809307098389, -2.2230594158172607, 0.5507957339286804, 
407, 3206351429, -3.9780144691467285, -88.16688537597656, -20.14521598815918, 9.82402515411377, -0.10709259659051895, 0.23843403160572052, 1.0258629322052002, -2.173598527908325, 0.4730052649974823, 
408, 3206359762, -3.9774982929229736, -88.16773986816406, -20.141456604003906, 9.796170234680176, -0.10457143932580948, 0.22821632027626038, 1.0863125324249268, -2.3274118900299072, 0.48238009214401245, 
409, 3206368095, -4.013929843902588, -88.16751861572266, -20.10118293762207, 9.809430122375488, -0.11022353172302246, 0.21484501659870148, 1.0530909299850464, -2.1440396308898926, 0.4855819046497345, 
410, 3206376428, -3.9934558868408203, -88.16719818115234, -20.117528915405273, 9.819177627563477, -0.09963235259056091, 0.24288639426231384, 1.0951493978500366, -2.1980345249176025, 0.4141950011253357, 
411, 3206384761, -4.019367694854736, -88.16837310791016, -20.0880126953125, 9.79020881652832, -0.1024133712053299, 0.25317317247390747, 0.9910273551940918, -2.254385471343994, 0.4366074204444885, 
412, 3206393094, -4.009978771209717, -88.16826629638672, -20.093732833862305, 9.788736343383789, -0.11121691763401031, 0.26176244020462036, 1.0489157438278198, -2.243832588195801, 0.4534872770309448, 
413, 3206401427, -4.018370628356934, -88.16869354248047, -20.081947326660156, 9.81041145324707, -0.08830191940069199, 0.2609045207500458, 0.9951770305633545, -2.217500925064087, 0.37072762846946716, 
414, 3206409760, -3.9889516830444336, -88.16944122314453, -20.108028411865234, 9.804938316345215, -0.09681238979101181, 0.25344452261924744, 0.9809868931770325, -2.2832019329071045, 0.3716241717338562, 
415, 3206418093, -4.009133338928223, -88.17019653320312, -20.084075927734375, 9.810494422912598, -0.11493536829948425, 0.2098904401063919, 1.0200228691101074, -2.2136077880859375, 0.4181908071041107, 
416, 3206426426, -3.997035264968872, -88.17201232910156, -20.092382431030273, 9.816734313964844, -0.0975533053278923, 0.2238207757472992, 1.043920874595642, -2.4450836181640625, 0.42859014868736267, 
417, 3206434759, -4.035378456115723, -88.17479705810547, -20.049734115600586, 9.80282974243164, -0.11983539909124374, 0.28809651732444763, 1.0980950593948364, -2.480405807495117, 0.47087931632995605, 
418, 3206443092, -4.064343452453613, -88.17705535888672, -20.016672134399414, 9.78780746459961, -0.08976170420646667, 0.28493863344192505, 1.0728650093078613, -2.526946544647217, 0.5805850028991699, 
419, 3206451425, -4.10555362701416, -88.17898559570312, -19.971864700317383, 9.833800315856934, -0.09668809175491333, 0.226544588804245, 1.0407449007034302, -2.445493459701538, 0.48330220580101013, 
420, 3206459758, -4.09604549407959, -88.1802749633789, -19.977445602416992, 9.800616264343262, -0.09662915021181107, 0.1984497606754303, 1.0321640968322754, -2.3458797931671143, 0.44575175642967224, 
421, 3206468091, -4.1448283195495605, -88.1826400756836, -19.924686431884766, 9.799653053283691, -0.11357786506414413, 0.23637907207012177, 1.0776805877685547, -2.4532291889190674, 0.5129378437995911, 
422, 3206476424, -4.163439750671387, -88.18522644042969, -19.901716232299805, 9.795938491821289, -0.11708119511604309, 0.21969522535800934, 1.09996497631073, -2.533529758453369, 0.5399865508079529, 
423, 3206484757, -4.20444393157959, -88.18782043457031, -19.856237411499023, 9.822733879089355, -0.0903848260641098, 0.2160295844078064, 1.1149492263793945, -2.461630344390869, 0.48258498311042786, 
424, 3206493090, -4.209865093231201, -88.19073486328125, -19.846717834472656, 9.781115531921387, -0.10399646311998367, 0.20420192182064056, 1.0660516023635864, -2.549154281616211, 0.4883737862110138, 
425, 3206501423, -4.2503437995910645, -88.19452667236328, -19.801937103271484, 9.850217819213867, -0.11469697207212448, 0.2203940451145172, 1.1189451217651367, -2.657707452774048, 0.4646037817001343, 
426, 3206509756, -4.246854782104492, -88.19712829589844, -19.800500869750977, 9.797264099121094, -0.09309700131416321, 0.24004632234573364, 1.1706857681274414, -2.523130178451538, 0.45884057879447937, 
427, 3206518089, -4.331352710723877, -88.20060729980469, -19.71162986755371, 9.843134880065918, -0.11550255864858627, 0.24969731271266937, 1.1008358001708984, -2.57389760017395, 0.6387806534767151, 
428, 3206526422, -4.365420341491699, -88.20267486572266, -19.672420501708984, 9.799140930175781, -0.11889288574457169, 0.22280053794384003, 1.1925349235534668, -2.4788944721221924, 0.6029463410377502, 
429, 3206534755, -4.463600158691406, -88.2051773071289, -19.56789207458496, 9.837355613708496, -0.11254642903804779, 0.21719428896903992, 1.3361026048660278, -2.4644224643707275, 0.7032772898674011, 
430, 3206543088, -4.538350582122803, -88.2058334350586, -19.48822021484375, 9.800293922424316, -0.11991527676582336, 0.24267545342445374, 1.1677913665771484, -2.3399369716644287, 0.7659808397293091, 
431, 3206551421, -4.628073692321777, -88.20648956298828, -19.393674850463867, 9.807815551757812, -0.12113300710916519, 0.25972360372543335, 1.152320384979248, -2.2148373126983643, 0.6860132813453674, 
432, 3206559754, -4.694645881652832, -88.2072525024414, -19.321775436401367, 9.825243949890137, -0.11040922999382019, 0.24812978506088257, 1.2151520252227783, -2.321469306945801, 0.7377027869224548, 
433, 3206568087, -4.765975475311279, -88.20779418945312, -19.246158599853516, 9.821464538574219, -0.11686781048774719, 0.21686989068984985, 1.1119779348373413, -2.274313449859619, 0.6109378933906555, 
434, 3206576420, -4.829978942871094, -88.20921325683594, -19.178003311157227, 9.826679229736328, -0.11989875882863998, 0.2227810025215149, 1.0678447484970093, -2.4029223918914795, 0.7152134776115417, 
435, 3206584753, -4.874756813049316, -88.20921325683594, -19.129440307617188, 9.792089462280273, -0.1175917461514473, 0.20354007184505463, 1.0355451107025146, -2.169935464859009, 0.515832245349884, 
436, 3206593086, -4.886537075042725, -88.20921325683594, -19.113235473632812, 9.810153007507324, -0.11448036134243011, 0.2405918836593628, 1.1178181171417236, -2.235149383544922, 0.536707878112793, 
437, 3206601419, -4.920312404632568, -88.20834350585938, -19.075075149536133, 9.810704231262207, -0.11381866782903671, 0.22928307950496674, 1.1008356809616089, -2.0150206089019775, 0.48968011140823364, 
438, 3206609752, -4.919755458831787, -88.20746612548828, -19.071271896362305, 9.802214622497559, -0.09957770258188248, 0.22859510779380798, 1.1153590679168701, -2.174776792526245, 0.4957250952720642, 
439, 3206618085, -4.962704181671143, -88.2088851928711, -19.023536682128906, 9.793351173400879, -0.10554800182580948, 0.23158103227615356, 1.1271414756774902, -2.242013931274414, 0.5065855383872986, 
440, 3206626418, -5.004833221435547, -88.20943450927734, -18.976131439208984, 9.831506729125977, -0.10810456424951553, 0.2653934359550476, 1.2090303897857666, -2.294907569885254, 0.6482579112052917, 
441, 3206634751, -5.046809673309326, -88.20921325683594, -18.92947006225586, 9.771522521972656, -0.10859231650829315, 0.24359309673309326, 1.1728886365890503, -2.189530372619629, 0.5079942941665649, 
442, 3206643084, -5.08880090713501, -88.2091064453125, -18.882091522216797, 9.825323104858398, -0.09454881399869919, 0.2363140732049942, 1.231852650642395, -2.239811420440674, 0.6521256566047668, 
443, 3206651417, -5.148008346557617, -88.20856475830078, -18.817785263061523, 9.765259742736816, -0.12184310704469681, 0.22828765213489532, 1.2035744190216064, -2.123650550842285, 0.5821218490600586, 
444, 3206659750, -5.189162254333496, -88.20768737792969, -18.771259307861328, 9.840219497680664, -0.10126043111085892, 0.20092210173606873, 1.220428705215454, -2.119091510772705, 0.6589646339416504, 
445, 3206668083, -5.255643844604492, -88.20681762695312, -18.699636459350586, 9.785944938659668, -0.09714864194393158, 0.20975738763809204, 1.1888974905014038, -2.0384063720703125, 0.6179049611091614, 
446, 3206676416, -5.267492294311523, -88.20539855957031, -18.683002471923828, 9.845497131347656, -0.10649728029966354, 0.24871639907360077, 1.142356514930725, -2.0330276489257812, 0.5560978651046753, 
447, 3206684749, -5.307103157043457, -88.20463562011719, -18.639373779296875, 9.78135871887207, -0.12673693895339966, 0.2096007615327835, 1.0872858762741089, -2.1227285861968994, 0.5041009783744812, 
448, 3206693082, -5.338884353637695, -88.20354461669922, -18.60389518737793, 9.808588027954102, -0.09524119645357132, 0.23374295234680176, 1.0261447429656982, -2.125469207763672, 0.619390606880188, 
449, 3206701415, -5.373233795166016, -88.20245361328125, -18.565332412719727, 9.77751350402832, -0.12779463827610016, 0.2683362662792206, 1.0659233331680298, -1.9857432842254639, 0.4972875714302063, 
450, 3206709748, -5.347489833831787, -88.19995880126953, -18.586992263793945, 9.816471099853516, -0.10879720747470856, 0.2286551296710968, 1.093868613243103, -1.963202953338623, 0.41895920038223267, 
451, 3206718081, -5.369217872619629, -88.19973754882812, -18.560266494750977, 9.77544116973877, -0.09866335988044739, 0.22467973828315735, 1.1627966165542603, -2.088738441467285, 0.444624662399292, 
452, 3206726414, -5.3560285568237305, -88.19963073730469, -18.56955337524414, 9.841492652893066, -0.09844084084033966, 0.2346702367067337, 1.0528347492218018, -2.1974198818206787, 0.44367700815200806, 
453, 3206734747, -5.368700981140137, -88.19843292236328, -18.55252456665039, 9.797083854675293, -0.10749996453523636, 0.24506232142448425, 1.1033459901809692, -2.038893222808838, 0.4132472574710846, 
454, 3206743080, -5.355345249176025, -88.19745635986328, -18.56127166748047, 9.829047203063965, -0.11351478844881058, 0.25216925144195557, 1.114821195602417, -2.0773911476135254, 0.45694515109062195, 
455, 3206751413, -5.387803077697754, -88.19712829589844, -18.52518653869629, 9.796753883361816, -0.12119133770465851, 0.2062787562608719, 1.0402837991714478, -2.1485989093780518, 0.47694987058639526, 
456, 3206759746, -5.393620491027832, -88.19778442382812, -18.515810012817383, 9.838117599487305, -0.12424971163272858, 0.2059350162744522, 0.9947929382324219, -2.300004482269287, 0.50387042760849, 
457, 3206768079, -5.427781581878662, -88.19810485839844, -18.478078842163086, 9.807238578796387, -0.11838454753160477, 0.24451668560504913, 1.0042444467544556, -2.1777992248535156, 0.47953692078590393, 
458, 3206776412, -5.457651138305664, -88.19821166992188, -18.44352912902832, 9.791271209716797, -0.11931867897510529, 0.25476914644241333, 1.1336733102798462, -2.218064785003662, 0.6070958375930786, 
459, 3206784745, -5.511229515075684, -88.19876098632812, -18.385595321655273, 9.778504371643066, -0.12067484110593796, 0.25001806020736694, 1.113796591758728, -2.2583558559417725, 0.5488234162330627, 
460, 3206793078, -5.51233434677124, -88.19930267333984, -18.37982177734375, 9.821967124938965, -0.12360066175460815, 0.22463324666023254, 1.1508604288101196, -2.3339948654174805, 0.486299067735672, 
461, 3206801411, -5.54080867767334, -88.20093536376953, -18.347789764404297, 9.815919876098633, -0.11490683257579803, 0.22918182611465454, 1.0038090944290161, -2.334174156188965, 0.44334396719932556, 
462, 3206809744, -5.5418243408203125, -88.2011489868164, -18.343490600585938, 9.803313255310059, -0.12178460508584976, 0.21247121691703796, 0.9933072924613953, -2.2745184898376465, 0.4891166388988495, 
463, 3206818077, -5.591670989990234, -88.20234680175781, -18.289382934570312, 9.817793846130371, -0.1062803789973259, 0.246921569108963, 1.0725321769714355, -2.261916399002075, 0.5326096415519714, 
464, 3206826410, -5.590041637420654, -88.2030029296875, -18.288232803344727, 9.793614387512207, -0.1015838235616684, 0.2541263997554779, 0.9192563891410828, -2.3209567070007324, 0.4710329473018646, 
465, 3206834743, -5.593080997467041, -88.20310974121094, -18.281667709350586, 9.816061973571777, -0.10392340272665024, 0.21002954244613647, 0.9885942339897156, -2.11448073387146, 0.36829429864883423, 
466, 3206843076, -5.590708255767822, -88.2030029296875, -18.2801513671875, 9.798811912536621, -0.12396568804979324, 0.23366957902908325, 1.037619948387146, -2.194397211074829, 0.48322537541389465, 
467, 3206851409, -5.616283893585205, -88.20310974121094, -18.251094818115234, 9.80271053314209, -0.0980939194560051, 0.23861441016197205, 1.038311243057251, -2.248340606689453, 0.441909521818161, 
468, 3206859742, -5.601852893829346, -88.20333099365234, -18.261173248291016, 9.800992965698242, -0.09020563215017319, 0.23847068846225739, 1.1077004671096802, -2.258816957473755, 0.43507063388824463, 
469, 3206868075, -5.628100395202637, -88.20343780517578, -18.232248306274414, 9.80606460571289, -0.1188097596168518, 0.23643963038921356, 0.8978172540664673, -2.145089626312256, 0.45212966203689575, 
470, 3206876408, -5.652120113372803, -88.20376586914062, -18.20484733581543, 9.80061149597168, -0.09805392473936081, 0.23022320866584778, 0.9731231927871704, -2.2633249759674072, 0.5742583274841309, 
471, 3206884741, -5.695183753967285, -88.2051773071289, -18.159151077270508, 9.806352615356445, -0.11037552356719971, 0.20618370175361633, 0.9085752367973328, -2.365192413330078, 0.49347102642059326, 
472, 3206893074, -5.722837448120117, -88.20484924316406, -18.129446029663086, 9.790799140930176, -0.10669636726379395, 0.22435417771339417, 0.8270196318626404, -2.19985294342041, 0.5914455056190491, 
473, 3206901407, -5.76787805557251, -88.20660400390625, -18.081693649291992, 9.789131164550781, -0.11015429347753525, 0.22572706639766693, 0.8877766132354736, -2.3255934715270996, 0.504357099533081, 
474, 3206909740, -5.735802173614502, -88.20638275146484, -18.11249351501465, 9.80896282196045, -0.10302246361970901, 0.2611660659313202, 0.7577074766159058, -2.2188589572906494, 0.360712468624115, 
475, 3206918073, -5.75616979598999, -88.2072525024414, -18.090572357177734, 9.800797462463379, -0.140882670879364, 0.2122407853603363, 0.7560681700706482, -2.261737108230591, 0.4131704270839691, 
476, 3206926406, -5.733497619628906, -88.20638275146484, -18.1129093170166, 9.826471328735352, -0.1191708967089653, 0.2114059180021286, 0.6355018615722656, -2.1139426231384277, 0.4036419093608856, 
477, 3206934739, -5.694972038269043, -88.20594787597656, -18.15070152282715, 9.815719604492188, -0.10825756937265396, 0.22470799088478088, 0.6591951251029968, -2.067452907562256, 0.20861512422561646, 
478, 3206943072, -5.641872882843018, -88.20452117919922, -18.203027725219727, 9.824990272521973, -0.12297772616147995, 0.23309768736362457, 0.6919300556182861, -2.051264524459839, 0.29493510723114014, 
479, 3206951405, -5.634350776672363, -88.20245361328125, -18.208099365234375, 9.804183006286621, -0.10686889290809631, 0.24362654983997345, 0.8486891984939575, -1.854367971420288, 0.3545650243759155, 
480, 3206959738, -5.563265323638916, -88.19973754882812, -18.27685546875, 9.785812377929688, -0.08726977556943893, 0.21525897085666656, 0.886086106300354, -1.9028303623199463, 0.24826598167419434, 
481, 3206968071, -5.554880619049072, -88.19810485839844, -18.28207015991211, 9.832377433776855, -0.09533680975437164, 0.23263713717460632, 0.9393635988235474, -1.9257804155349731, 0.34424251317977905, 
482, 3206976404, -5.490222930908203, -88.19680786132812, -18.343765258789062, 9.830950736999512, -0.10224825143814087, 0.2163233608007431, 0.9588559865951538, -2.0878162384033203, 0.2561039328575134, 
483, 3206984737, -5.4727983474731445, -88.19571685791016, -18.358858108520508, 9.803543090820312, -0.11079881340265274, 0.2255842238664627, 0.872279942035675, -1.9870753288269043, 0.3036951720714569, 
484, 3206993070, -5.440332412719727, -88.19485473632812, -18.38834571838379, 9.814228057861328, -0.10115046799182892, 0.23087571561336517, 0.9292715787887573, -2.109588146209717, 0.3738781213760376, 
485, 3207001403, -5.471388816833496, -88.19441223144531, -18.353145599365234, 9.810141563415527, -0.12318871170282364, 0.23580940067768097, 1.0846476554870605, -2.094270944595337, 0.48332783579826355, 
486, 3207009736, -5.455513954162598, -88.19376373291016, -18.36566162109375, 9.803360939025879, -0.11923888325691223, 0.23825950920581818, 0.987800121307373, -2.1726508140563965, 0.43404603004455566, 
487, 3207018069, -5.478002071380615, -88.19300842285156, -18.33941078186035, 9.809358596801758, -0.11135999113321304, 0.21025756001472473, 1.0370819568634033, -2.0663511753082275, 0.45315423607826233, 
488, 3207026402, -5.4594831466674805, -88.19181823730469, -18.353429794311523, 9.81741714477539, -0.12678050994873047, 0.23600371181964874, 1.1275770664215088, -2.0834107398986816, 0.43496817350387573, 
489, 3207034735, -5.476078033447266, -88.19160461425781, -18.332399368286133, 9.831286430358887, -0.09130854904651642, 0.23555615544319153, 1.1084944009780884, -2.1200900077819824, 0.4287438690662384, 
490, 3207043068, -5.462484836578369, -88.19052124023438, -18.341571807861328, 9.823100090026855, -0.12082137912511826, 0.21319371461868286, 1.105574607849121, -2.093092918395996, 0.45151492953300476, 
491, 3207051401, -5.501543998718262, -88.1900863647461, -18.296646118164062, 9.836981773376465, -0.09086321294307709, 0.22605052590370178, 1.302266240119934, -2.1435017585754395, 0.5198794007301331, 
492, 3207059734, -5.488247394561768, -88.18889617919922, -18.305044174194336, 9.818395614624023, -0.1175147071480751, 0.23603558540344238, 1.1713773012161255, -2.0704498291015625, 0.4574061930179596, 
493, 3207068067, -5.535330295562744, -88.18792724609375, -18.252155303955078, 9.798299789428711, -0.10764317959547043, 0.22740058600902557, 1.264920711517334, -2.037382125854492, 0.5586081147193909, 
494, 3207076400, -5.532663345336914, -88.18685150146484, -18.249059677124023, 9.76562786102295, -0.0998459905385971, 0.2428070455789566, 1.2648694515228271, -2.0716793537139893, 0.5028202533721924, 
495, 3207084733, -5.567577838897705, -88.18630981445312, -18.20844841003418, 9.832643508911133, -0.09950974583625793, 0.24042339622974396, 1.269070029258728, -2.1191937923431396, 0.5038704872131348, 
496, 3207093066, -5.5522613525390625, -88.1844711303711, -18.217754364013672, 9.81436538696289, -0.09931579232215881, 0.23094172775745392, 1.2945051193237305, -1.9819782972335815, 0.46227291226387024, 
497, 3207101399, -5.569227695465088, -88.18511962890625, -18.19575309753418, 9.815024375915527, -0.10450473427772522, 0.2315562218427658, 1.2000398635864258, -2.248110294342041, 0.4226989448070526, 
498, 3207109732, -5.562165260314941, -88.18404388427734, -18.197284698486328, 9.795531272888184, -0.10922997444868088, 0.2252131700515747, 1.25751793384552, -2.127748966217041, 0.47889652848243713, 
499, 3207118065, -5.612778186798096, -88.18489837646484, -18.14008140563965, 9.81122875213623, -0.11350668221712112, 0.22151057422161102, 1.3612045049667358, -2.2519521713256836, 0.5549964904785156, 
500, 3207126398, -5.573848724365234, -88.18425750732422, -18.17327880859375, 9.810455322265625, -0.10750231891870499, 0.23923003673553467, 1.2770617008209229, -2.1662728786468506, 0.35605067014694214, 
501, 3207134731, -5.560243129730225, -88.18350219726562, -18.180259704589844, 9.81783676147461, -0.11905369162559509, 0.24044430255889893, 1.3616656064987183, -2.0072851181030273, 0.33440664410591125, 
502, 3207143064, -5.55139684677124, -88.1829605102539, -18.183490753173828, 9.792014122009277, -0.10432174801826477, 0.19503992795944214, 1.2520365715026855, -2.162071943283081, 0.4694448709487915, 
503, 3207151397, -5.563877582550049, -88.18231964111328, -18.164260864257812, 9.81601619720459, -0.08392798155546188, 0.2753638029098511, 1.3936576843261719, -2.057565689086914, 0.42940986156463623, 
504, 3207159730, -5.541316509246826, -88.18059539794922, -18.180856704711914, 9.814637184143066, -0.10344312340021133, 0.20855958759784698, 1.2937109470367432, -2.0041089057922363, 0.43394359946250916, 
505, 3207168063, -5.549553394317627, -88.17865753173828, -18.166446685791016, 9.832809448242188, -0.09591998159885406, 0.2459602653980255, 1.3100014925003052, -1.9117183685302734, 0.4275655448436737, 
506, 3207176396, -5.554513931274414, -88.17726135253906, -18.155941009521484, 9.803499221801758, -0.1028316542506218, 0.22613175213336945, 1.2502436637878418, -2.0615618228912354, 0.5316619277000427, 
507, 3207184729, -5.584201335906982, -88.17597198486328, -18.120941162109375, 9.820623397827148, -0.10274363309144974, 0.2713339626789093, 1.2446341514587402, -2.0771353244781494, 0.4902949035167694, 
508, 3207193062, -5.613376140594482, -88.1740493774414, -18.086456298828125, 9.815977096557617, -0.10301874577999115, 0.25417500734329224, 1.2242709398269653, -2.0127923488616943, 0.6288935542106628, 
509, 3207201395, -5.666181564331055, -88.17243957519531, -18.027996063232422, 9.803253173828125, -0.09558159857988358, 0.25301089882850647, 1.2579021453857422, -1.9775468111038208, 0.5915222764015198, 
510, 3207209728, -5.689373016357422, -88.16976928710938, -17.99895668029785, 9.789417266845703, -0.1112670749425888, 0.2472464144229889, 1.2678918838500977, -1.901626467704773, 0.6181355714797974, 
511, 3207218061, -5.703219890594482, -88.16688537597656, -17.980113983154297, 9.795197486877441, -0.12668175995349884, 0.22649483382701874, 1.1961206197738647, -1.8374114036560059, 0.4535640478134155, 
512, 3207226394, -5.689215660095215, -88.16539001464844, -17.988779067993164, 9.795106887817383, -0.11518179625272751, 0.24917878210544586, 1.2065203189849854, -2.0233964920043945, 0.4613252282142639, 
513, 3207234727, -5.672542095184326, -88.16336059570312, -18.001066207885742, 9.831319808959961, -0.12283465266227722, 0.2546924948692322, 1.1261169910430908, -1.926395297050476, 0.3256721794605255, 
514, 3207243060, -5.618285179138184, -88.16155242919922, -18.05025863647461, 9.758411407470703, -0.09655563533306122, 0.26777079701423645, 1.1864643096923828, -1.9676345586776733, 0.3105854094028473, 
515, 3207251393, -5.6030802726745605, -88.16080474853516, -18.06089210510254, 9.75376033782959, -0.12766030430793762, 0.25067296624183655, 1.1284480094909668, -2.03220796585083, 0.32008829712867737, 
516, 3207259726, -5.541247367858887, -88.16133880615234, -18.11834144592285, 9.813552856445312, -0.08995523303747177, 0.22802740335464478, 1.1182278394699097, -2.2856605052948, 0.24862457811832428, 
517, 3207268059, -5.507791519165039, -88.16304779052734, -18.14759063720703, 9.839682579040527, -0.09208589047193527, 0.23039141297340393, 1.073403000831604, -2.3118896484375, 0.22213947772979736, 
518, 3207276392, -5.422849655151367, -88.16272735595703, -18.227880477905273, 9.79003620147705, -0.09237802028656006, 0.27508699893951416, 1.142510175704956, -2.16670823097229, 0.17039871215820312, 
519, 3207284725, -5.3722052574157715, -88.16336059570312, -18.273847579956055, 9.7840576171875, -0.09862075746059418, 0.2384708970785141, 1.1496309041976929, -2.209996223449707, 0.1684776246547699, 
520, 3207293058, -5.308265686035156, -88.16219329833984, -18.33251190185547, 9.873766899108887, -0.09100337326526642, 0.2397955060005188, 1.2360278367996216, -2.105464458465576, 0.26112431287765503, 
521, 3207301391, -5.285550594329834, -88.16165924072266, -18.349672317504883, 9.879889488220215, -0.11619797348976135, 0.24128253757953644, 1.2427901029586792, -2.072575807571411, 0.2920919358730316, 
522, 3207309724, -5.19591760635376, -88.1584701538086, -18.433122634887695, 9.813830375671387, -0.12048299610614777, 0.20465311408042908, 1.3190433979034424, -1.7782937288284302, 0.19455291330814362, 
523, 3207318057, -5.154118061065674, -88.15613555908203, -18.467809677124023, 9.843620300292969, -0.07890130579471588, 0.20255005359649658, 1.4408904314041138, -1.8484770059585571, 0.24452629685401917, 
524, 3207326390, -5.0497589111328125, -88.15083312988281, -18.564451217651367, 9.879605293273926, -0.08758661150932312, 0.1566271334886551, 1.5010324716567993, -1.529733419418335, 0.16258636116981506, 
525, 3207334723, -5.076047897338867, -88.1410140991211, -18.529870986938477, 9.883057594299316, -0.08216732740402222, 0.20147956907749176, 1.5868659019470215, -1.022597074508667, 0.5870654582977295, 
526, 3207343056, -5.122039794921875, -88.12989044189453, -18.475032806396484, 9.818168640136719, -0.051155153661966324, 0.2521037757396698, 1.636070728302002, -0.907076895236969, 0.8071173429489136, 
527, 3207351389, -5.302388668060303, -88.11892700195312, -18.285961151123047, 9.826353073120117, -0.0366198904812336, 0.22387206554412842, 1.629129409790039, -0.946266770362854, 1.2082875967025757, 
528, 3207359722, -5.540711402893066, -88.10710906982422, -18.03765869140625, 9.812607765197754, -0.057596221566200256, 0.2598392069339752, 1.7487733364105225, -0.8857402205467224, 1.5873781442642212, 
529, 3207368055, -5.8567376136779785, -88.09659576416016, -17.712539672851562, 9.866145133972168, -0.08725246042013168, 0.2559770941734314, 1.6763107776641846, -1.0297691822052002, 1.7615550756454468, 
530, 3207376388, -6.211790084838867, -88.08409118652344, -17.347618103027344, 9.817693710327148, -0.089597187936306, 0.25473836064338684, 1.7381436824798584, -0.8737272620201111, 2.0839357376098633, 
531, 3207384721, -6.614185810089111, -88.07288360595703, -16.934688568115234, 9.893401145935059, -0.09446785598993301, 0.23717686533927917, 1.800693392753601, -0.9730335474014282, 2.1563217639923096, 
532, 3207393054, -6.9909348487854, -88.05640411376953, -16.54608917236328, 9.872641563415527, -0.0663306787610054, 0.21071673929691315, 1.970618486404419, -0.4284493327140808, 2.274198532104492, 
533, 3207401387, -7.4606757164001465, -88.03855895996094, -16.064218521118164, 9.9002046585083, -0.08531159907579422, 0.23190481960773468, 2.016237258911133, -0.2983289659023285, 2.5725016593933105, 
534, 3207409720, -7.910843849182129, -88.01702880859375, -15.599486351013184, 9.940314292907715, -0.11453011631965637, 0.2290244698524475, 2.2939212322235107, 0.08192712813615799, 2.720961809158325, 
535, 3207418053, -8.362900733947754, -87.99397277832031, -15.132644653320312, 9.932114601135254, -0.10612329840660095, 0.20528914034366608, 2.3179471492767334, 0.3348676860332489, 2.676828384399414, 
536, 3207426386, -8.77200984954834, -87.96847534179688, -14.7086181640625, 10.018192291259766, -0.09290862083435059, 0.21066918969154358, 2.3393094539642334, 0.5421892404556274, 2.703415870666504, 
537, 3207434719, -9.290838241577148, -87.93758392333984, -14.174074172973633, 10.213587760925293, -0.06721709668636322, 0.15773959457874298, 2.4397172927856445, 1.1219675540924072, 3.1933906078338623, 
538, 3207443052, -9.863321304321289, -87.8973617553711, -13.583826065063477, 10.366095542907715, -0.14764076471328735, 0.07412059605121613, 2.6728837490081787, 2.0856518745422363, 3.8101558685302734, 
539, 3207451385, -10.44947624206543, -87.82823181152344, -12.97922134399414, 11.316008567810059, 0.0792803093791008, -0.22008860111236572, 2.735715866088867, 5.5883989334106445, 4.48634672164917, 
540, 3207459718, -11.85572338104248, -87.71553039550781, -11.56137466430664, 12.312719345092773, 1.4671984910964966, -0.05588360130786896, 1.8312005996704102, 9.776636123657227, 9.577970504760742, 
541, 3207468051, -17.612878799438477, -87.44044494628906, -5.746228218078613, 16.811290740966797, -2.605494737625122, -1.5552624464035034, 6.9298787117004395, 22.24117088317871, 37.22564697265625, 
542, 3207476384, -20.655717849731445, -87.0552978515625, -2.6281771659851074, 14.341519355773926, 1.2929273843765259, -0.3756513297557831, 9.157530784606934, 35.59217071533203, 32.59952163696289, 
543, 3207484717, -19.01921272277832, -86.61494445800781, -4.267297267913818, 16.130205154418945, -0.6484061479568481, -1.1582266092300415, 0.5623490810394287, 51.25883102416992, 8.080401420593262, 
544, 3207493050, -18.22688865661621, -86.0849838256836, -5.031425952911377, 11.950020790100098, -0.14027592539787292, -0.0698094516992569, 4.13073205947876, 59.94418716430664, 15.266864776611328, 
545, 3207501383, -17.230690002441406, -85.54227447509766, -6.01231575012207, 11.990804672241211, 0.05537934601306915, 0.04209989309310913, 2.7341370582580566, 62.520050048828125, 12.008035659790039, 
546, 3207509716, -16.276317596435547, -84.9552001953125, -6.94865608215332, 12.44295597076416, -0.06089390069246292, -0.06502227485179901, 3.122734546661377, 67.93696594238281, 11.876513481140137, 
547, 3207518049, -15.396472930908203, -84.331787109375, -7.8153533935546875, 12.017322540283203, 0.010538611561059952, 0.10318674147129059, 2.6215908527374268, 72.4778823852539, 11.434389114379883, 
548, 3207526382, -14.66597843170166, -83.67398834228516, -8.532500267028809, 11.610751152038574, -0.11411009728908539, 0.25544482469558716, 2.650280475616455, 76.35161590576172, 12.268400192260742, 
549, 3207534715, -14.079157829284668, -82.99615478515625, -9.104913711547852, 11.168974876403809, -0.16680914163589478, 0.4411480128765106, 2.7915189266204834, 78.64594268798828, 12.83020305633545, 
550, 3207543048, -13.579073905944824, -82.3005599975586, -9.591756820678711, 11.13200855255127, -0.18115505576133728, 0.5310027599334717, 2.6423163414001465, 80.62568664550781, 13.171570777893066, 
551, 3207551381, -13.19223403930664, -81.58910369873047, -9.964009284973145, 10.619878768920898, -0.24098210036754608, 0.6907962560653687, 2.7877044677734375, 82.3824234008789, 14.04018497467041, 
552, 3207559714, -12.861910820007324, -80.87100982666016, -10.276684761047363, 10.182659149169922, -0.42320120334625244, 0.8567124605178833, 3.13242244720459, 83.0262680053711, 14.327781677246094, 
553, 3207568047, -12.554043769836426, -80.14974212646484, -10.562015533447266, 9.896692276000977, -0.4660075306892395, 0.963809609413147, 3.7826449871063232, 83.5473403930664, 13.897438049316406, 
554, 3207576380, -12.294507026672363, -79.42982482910156, -10.795971870422363, 9.490649223327637, -0.35842448472976685, 1.1480425596237183, 4.0895562171936035, 83.2215576171875, 14.20370864868164, 
555, 3207584713, -12.050394058227539, -78.71614074707031, -11.014127731323242, 9.276294708251953, -0.6223543882369995, 1.2626173496246338, 4.193140029907227, 82.64289855957031, 13.574079513549805, 
556, 3207593046, -11.817628860473633, -78.00403594970703, -11.218786239624023, 9.022974014282227, -0.6016789674758911, 1.4516794681549072, 4.456225872039795, 82.41777801513672, 13.298749923706055, 
557, 3207601379, -11.576274871826172, -77.30741882324219, -11.437227249145508, 8.82174301147461, -0.5519864559173584, 1.6018680334091187, 3.959510326385498, 80.8777084350586, 11.827352523803711, 
558, 3207609712, -11.339020729064941, -76.62303161621094, -11.651749610900879, 8.308683395385742, -0.7371742725372314, 1.8186994791030884, 3.969216823577881, 79.42587280273438, 11.100183486938477, 
559, 3207618045, -11.124691009521484, -75.96282958984375, -11.840790748596191, 7.978614330291748, -0.5793325901031494, 1.958619475364685, 4.297438621520996, 76.62631225585938, 10.523754119873047, 
560, 3207626378, -10.92912769317627, -75.3264389038086, -12.013413429260254, 7.780114650726318, -0.5379862785339355, 2.1829097270965576, 3.978358507156372, 73.71878051757812, 10.041507720947266, 
561, 3207634711, -10.7531099319458, -74.71644592285156, -12.166266441345215, 7.503891944885254, -0.6110202074050903, 2.415783166885376, 4.013525009155273, 70.66949462890625, 9.47806453704834, 
562, 3207643044, -10.591764450073242, -74.14216613769531, -12.302329063415527, 7.1724467277526855, -0.5942314267158508, 2.553739309310913, 4.215363502502441, 66.30801391601562, 8.93114185333252, 
563, 3207651377, -10.453841209411621, -73.60352325439453, -12.4157075881958, 7.333454132080078, -0.668302595615387, 2.692835807800293, 4.094974040985107, 62.12265396118164, 8.457119941711426, 
564, 3207659710, -10.306937217712402, -73.09716796875, -12.538655281066895, 7.474788665771484, -0.8085519075393677, 2.7719995975494385, 4.0736870765686035, 58.308555603027344, 7.267663955688477, 
565, 3207668043, -10.1552734375, -72.6243896484375, -12.663849830627441, 7.451394081115723, -0.9337388277053833, 2.8583176136016846, 4.4561591148376465, 54.492027282714844, 6.085792064666748, 
566, 3207676376, -9.972341537475586, -72.18203735351562, -12.816951751708984, 7.574272632598877, -1.0184921026229858, 2.9606692790985107, 5.020542144775391, 51.01264190673828, 4.283004283905029, 
567, 3207684709, -9.758132934570312, -71.76451873779297, -13.001545906066895, 8.508293151855469, -1.2373234033584595, 2.7633378505706787, 5.263313293457031, 48.40635299682617, 2.1964123249053955, 
568, 3207693042, -9.483443260192871, -71.36735534667969, -13.241570472717285, 7.612273693084717, -1.2378894090652466, 3.191265344619751, 6.218469619750977, 46.284156799316406, -0.5396929383277893, 
569, 3207701375, -9.139670372009277, -71.00138854980469, -13.550512313842773, 8.356611251831055, -1.5040991306304932, 3.0487499237060547, 6.777551174163818, 43.14975357055664, -4.32883882522583, 
570, 3207709708, -8.753498077392578, -70.64522552490234, -13.891192436218262, 8.761664390563965, -1.2153750658035278, 3.001729726791382, 8.307055473327637, 42.08769607543945, -6.144326686859131, 
571, 3207718041, -8.325837135314941, -70.29475402832031, -14.271273612976074, 9.062681198120117, -0.9852485656738281, 3.0282061100006104, 8.960630416870117, 41.715965270996094, -8.469643592834473, 
572, 3207726374, -7.8804802894592285, -69.94114685058594, -14.665349960327148, 9.130578994750977, -0.8032832145690918, 3.073399066925049, 9.5517578125, 42.051509857177734, -9.465885162353516, 
573, 3207734707, -7.427876949310303, -69.58949279785156, -15.062247276306152, 9.106416702270508, -0.8469648361206055, 3.1441338062286377, 10.248594284057617, 41.8826904296875, -10.345453262329102, 
574, 3207743040, -6.944068431854248, -69.23408508300781, -15.487281799316406, 9.64474105834961, -0.9623680114746094, 3.070582389831543, 10.891488075256348, 42.33263397216797, -11.984308242797852, 
575, 3207751373, -6.429248809814453, -68.86492156982422, -15.939802169799805, 10.049099922180176, -1.015275478363037, 3.0612308979034424, 11.693931579589844, 44.12604522705078, -13.76613998413086, 
576, 3207759706, -5.883778095245361, -68.47718811035156, -16.420787811279297, 9.738968849182129, -1.012217402458191, 3.2415270805358887, 12.273229598999023, 46.28618621826172, -15.40984058380127, 
577, 3207768039, -5.314389228820801, -68.0829086303711, -16.923744201660156, 9.645431518554688, -0.8810603618621826, 3.304457426071167, 12.881749153137207, 47.135616302490234, -17.254838943481445, 
578, 3207776372, -4.727495193481445, -67.6760025024414, -17.44649314880371, 9.647391319274902, -0.562284529209137, 3.313997983932495, 12.895379066467285, 48.4850959777832, -18.783403396606445, 
579, 3207784705, -4.1618828773498535, -67.25787353515625, -17.95013427734375, 9.169520378112793, -0.17338639497756958, 3.425813674926758, 12.681705474853516, 49.68512725830078, -18.843673706054688, 
580, 3207793038, -3.641038656234741, -66.82992553710938, -18.411510467529297, 9.44951057434082, 0.0012028717901557684, 3.459805727005005, 12.10220718383789, 50.47763442993164, -17.575586318969727, 
581, 3207801371, -3.187002182006836, -66.39555358886719, -18.807825088500977, 9.03739070892334, 0.2586613893508911, 3.555210828781128, 11.470070838928223, 51.03184509277344, -15.379825592041016, 
582, 3207809704, -2.8031678199768066, -65.95462036132812, -19.13551902770996, 8.767729759216309, 0.5456629991531372, 3.598541736602783, 10.668163299560547, 51.44438552856445, -12.62331485748291, 
583, 3207818037, -2.487473487854004, -65.51372528076172, -19.40042495727539, 8.451778411865234, 0.48959144949913025, 3.7872982025146484, 9.540698051452637, 51.324989318847656, -10.244540214538574, 
584, 3207826370, -2.23569917678833, -65.07803344726562, -19.60376739501953, 8.00786304473877, 0.5601245760917664, 3.941603422164917, 8.626138687133789, 50.43251419067383, -7.560674667358398, 
585, 3207834703, -2.0457777976989746, -64.65372467041016, -19.75386619567871, 8.026996612548828, 0.5746817588806152, 3.991032838821411, 7.11548376083374, 49.04095458984375, -5.3798980712890625, 
586, 3207843036, -1.8988274335861206, -64.24020385742188, -19.86640739440918, 7.914809226989746, 0.3837082087993622, 4.116568088531494, 6.0334062576293945, 47.56945037841797, -3.6394824981689453, 
587, 3207851369, -1.7782763242721558, -63.8421745300293, -19.96096420288086, 7.754786968231201, 0.19749557971954346, 4.249807834625244, 4.8931097984313965, 45.772125244140625, -3.063596487045288, 
588, 3207859702, -1.6566731929779053, -63.459842681884766, -20.064544677734375, 7.660348415374756, -0.26473766565322876, 4.412841796875, 4.0352606773376465, 43.801429748535156, -3.6641225814819336, 
589, 3207868035, -1.5069286823272705, -63.10255432128906, -20.205774307250977, 7.255758762359619, -0.49931979179382324, 4.559561729431152, 3.4592461585998535, 40.930110931396484, -6.0630011558532715, 
590, 3207876368, -1.3129421472549438, -62.777000427246094, -20.401718139648438, 6.791655540466309, -0.7594408392906189, 4.725522994995117, 2.9222679138183594, 37.08770751953125, -9.259352684020996, 
591, 3207884701, -1.0717359781265259, -62.49345016479492, -20.64890480041504, 6.546000957489014, -0.9135019183158875, 4.85580587387085, 3.234914541244507, 32.17316436767578, -12.550475120544434, 
592, 3207893034, -0.7657362818717957, -62.24748229980469, -20.96479606628418, 6.775481224060059, -1.1011210680007935, 4.942410945892334, 3.7164878845214844, 27.567331314086914, -16.629901885986328, 
593, 3207901367, -0.38373619318008423, -62.04353332519531, -21.357465744018555, 6.205561637878418, -1.3954342603683472, 5.1520233154296875, 4.805093288421631, 22.551982879638672, -21.404605865478516, 
594, 3207909700, 0.08482426404953003, -61.88862991333008, -21.832731246948242, 5.9455180168151855, -1.327764630317688, 5.251976490020752, 6.469635963439941, 16.432506561279297, -26.281278610229492, 
595, 3207918033, 0.623070240020752, -61.7855224609375, -22.3731632232666, 5.8286848068237305, -1.0672285556793213, 5.148279666900635, 8.051880836486816, 10.039264678955078, -30.32292938232422, 
596, 3207926366, 1.189543604850769, -61.725730895996094, -22.93581771850586, 6.150394916534424, -0.35769954323768616, 4.972731590270996, 9.078936576843262, 4.440833568572998, -31.58806800842285, 
597, 3207934699, 1.735499382019043, -61.69964599609375, -23.476743698120117, 6.3108320236206055, 0.4337988793849945, 4.892768859863281, 8.988515853881836, 0.18484529852867126, -30.471643447875977, 
598, 3207943032, 2.227656126022339, -61.70832061767578, -23.9638729095459, 6.3481268882751465, 1.2106304168701172, 4.837698459625244, 8.169217109680176, -4.2213568687438965, -27.184226989746094, 
599, 3207951365, 2.624629020690918, -61.74893569946289, -24.356708526611328, 6.4157233238220215, 1.6920706033706665, 4.7098307609558105, 6.753669738769531, -7.979426860809326, -21.742679595947266, 
600, 3207959698, 2.9192054271698, -61.81476974487305, -24.649097442626953, 6.965315341949463, 1.9689146280288696, 4.58454704284668, 5.012873649597168, -10.917916297912598, -15.715259552001953, 
601, 3207968031, 3.1131253242492676, -61.899227142333984, -24.84602165222168, 7.31784200668335, 1.928430438041687, 4.586757659912109, 3.065037965774536, -12.875509262084961, -10.233118057250977, 
