PacketCounter,SampleTimeFine,Euler_X,Euler_Y,Euler_Z,Acc_X,Acc_Y,Acc_Z,Gyr_X,Gyr_Y,Gyr_Z,
0, 3152886901, -15.280152320861816, -88.23099517822266, -37.09105682373047, 0, 0, 0, 0, 0, 0, 
1, 3152895234, -15.343646049499512, -88.23165130615234, -37.02223587036133, 9.828067779541016, -0.13227668404579163, 0.22576522827148438, 1.194020390510559, -2.363912343978882, 0.7057106494903564, 
2, 3152903567, -15.405355453491211, -88.23210144042969, -36.95616149902344, 9.801569938659668, -0.12248412519693375, 0.23851566016674042, 1.1059075593948364, -2.296623706817627, 0.5851956009864807, 
3, 3152911900, -15.46381664276123, -88.23187255859375, -36.892024993896484, 9.788689613342285, -0.12453638762235641, 0.2259087860584259, 1.266021966934204, -2.2725720405578613, 0.7131386995315552, 
4, 3152920233, -15.556923866271973, -88.23231506347656, -36.79325485229492, 9.784283638000488, -0.12282479554414749, 0.21958130598068237, 1.2274982929229736, -2.297135591506958, 0.7095271348953247, 
5, 3152928566, -15.610835075378418, -88.23210144042969, -36.73414993286133, 9.839232444763184, -0.12593451142311096, 0.22298894822597504, 1.179036021232605, -2.2605843544006348, 0.6988715529441833, 
6, 3152936899, -15.675762176513672, -88.23165130615234, -36.66378402709961, 9.827542304992676, -0.13555966317653656, 0.20855078101158142, 1.2032928466796875, -2.1775431632995605, 0.6324283480644226, 
7, 3152945232, -15.717071533203125, -88.23231506347656, -36.61758804321289, 9.790925025939941, -0.15020810067653656, 0.2505742609500885, 1.1721971035003662, -2.349184036254883, 0.62423175573349, 
8, 3152953565, -15.776511192321777, -88.23265075683594, -36.552886962890625, 9.795124053955078, -0.13151265680789948, 0.1956082433462143, 1.2162022590637207, -2.2759783267974854, 0.5866556167602539, 
9, 3152961898, -15.787395477294922, -88.23353576660156, -36.5386848449707, 9.788228988647461, -0.14197245240211487, 0.22308261692523956, 0.9812941551208496, -2.3594553470611572, 0.4985170364379883, 
10, 3152970231, -15.82637882232666, -88.23431396484375, -36.49456024169922, 9.808961868286133, -0.15738080441951752, 0.21067550778388977, 1.166152000427246, -2.2787704467773438, 0.5040753483772278, 
11, 3152978564, -15.821452140808105, -88.23509216308594, -36.49455642700195, 9.790284156799316, -0.12499821186065674, 0.19728274643421173, 1.1583139896392822, -2.309609889984131, 0.45681703090667725, 
12, 3152986897, -15.86318302154541, -88.23674774169922, -36.44799041748047, 9.815013885498047, -0.16788816452026367, 0.21898144483566284, 1.15506112575531, -2.4093515872955322, 0.47766703367233276, 
13, 3152995230, -15.884000778198242, -88.23775482177734, -36.420875549316406, 9.816900253295898, -0.1432761549949646, 0.2123253345489502, 1.2994741201400757, -2.334711790084839, 0.5525118708610535, 
14, 3153003563, -15.933149337768555, -88.23697662353516, -36.36676788330078, 9.822672843933105, -0.12272890657186508, 0.21931348741054535, 1.1811108589172363, -2.152902126312256, 0.580713152885437, 
15, 3153011896, -15.921929359436035, -88.23674774169922, -36.372249603271484, 9.813276290893555, -0.12252039462327957, 0.2231675684452057, 1.2685320377349854, -2.201056718826294, 0.466806560754776, 
16, 3153020229, -15.992940902709961, -88.23674774169922, -36.29662322998047, 9.802127838134766, -0.15819744765758514, 0.21223393082618713, 1.1399743556976318, -2.2675771713256836, 0.629277765750885, 
17, 3153028562, -15.999784469604492, -88.23564147949219, -36.2836799621582, 9.832756996154785, -0.13165995478630066, 0.20500130951404572, 1.3405081033706665, -2.1365344524383545, 0.5577371120452881, 
18, 3153036895, -16.054462432861328, -88.23542022705078, -36.222808837890625, 9.794686317443848, -0.13311755657196045, 0.23053283989429474, 1.2211716175079346, -2.122856855392456, 0.6129358410835266, 
19, 3153045228, -16.098222732543945, -88.23320770263672, -36.17470932006836, 9.837158203125, -0.1500556468963623, 0.22692729532718658, 1.1312655210494995, -2.0283658504486084, 0.7239479422569275, 
20, 3153053561, -16.1241512298584, -88.23087310791016, -36.14446258544922, 9.777200698852539, -0.14025981724262238, 0.24103125929832458, 1.0969680547714233, -1.9652007818222046, 0.542829692363739, 
21, 3153061894, -16.105504989624023, -88.22822570800781, -36.15849685668945, 9.782587051391602, -0.13489095866680145, 0.22719287872314453, 1.118278980255127, -1.8810068368911743, 0.5269232392311096, 
22, 3153070227, -16.07794189453125, -88.2254638671875, -36.18187713623047, 9.839306831359863, -0.14415742456912994, 0.20205380022525787, 1.0955848693847656, -1.8557512760162354, 0.36901146173477173, 
23, 3153078560, -16.031299591064453, -88.22303771972656, -36.2237663269043, 9.798754692077637, -0.14481061697006226, 0.2071976363658905, 1.16154146194458, -1.906672477722168, 0.41130053997039795, 
24, 3153086893, -16.046924591064453, -88.22062683105469, -36.20344543457031, 9.813202857971191, -0.14048077166080475, 0.23903657495975494, 1.1210453510284424, -1.879341959953308, 0.5315081477165222, 
25, 3153095226, -15.982611656188965, -88.21809387207031, -36.263031005859375, 9.816221237182617, -0.1470409333705902, 0.2757113575935364, 1.161105990409851, -1.9078761339187622, 0.3411175608634949, 
26, 3153103559, -15.987748146057129, -88.21732330322266, -36.252742767333984, 9.781943321228027, -0.1432596892118454, 0.22560253739356995, 1.1336476802825928, -2.044092893600464, 0.4444454312324524, 
27, 3153111892, -15.945971488952637, -88.21656036376953, -36.29000473022461, 9.809270858764648, -0.14208601415157318, 0.2106555700302124, 1.100374698638916, -2.076341152191162, 0.3786168396472931, 
28, 3153120225, -15.919760704040527, -88.21513366699219, -36.312110900878906, 9.812546730041504, -0.14809873700141907, 0.23952136933803558, 1.1198159456253052, -2.0450661182403564, 0.32229113578796387, 
29, 3153128558, -15.831997871398926, -88.21293640136719, -36.3948974609375, 9.807658195495605, -0.13279157876968384, 0.2640877664089203, 1.2023706436157227, -1.8851563930511475, 0.25653937458992004, 
30, 3153136891, -15.783736228942871, -88.21348571777344, -36.4374885559082, 9.813824653625488, -0.1285591721534729, 0.2348165363073349, 1.2449671030044556, -2.2107133865356445, 0.19281116127967834, 
31, 3153145224, -15.673443794250488, -88.21337890625, -36.54290771484375, 9.792169570922852, -0.14095860719680786, 0.24054254591464996, 1.154497742652893, -2.101443290710449, 0.1069522425532341, 
32, 3153153557, -15.559128761291504, -88.21392059326172, -36.65283966064453, 9.819172859191895, -0.1368713080883026, 0.19753526151180267, 1.0779879093170166, -2.096499443054199, -0.03583431616425514, 
33, 3153161890, -15.432662010192871, -88.21469116210938, -36.774696350097656, 9.821523666381836, -0.11361007392406464, 0.22363688051700592, 1.1560600996017456, -2.1933727264404297, 0.017635401338338852, 
34, 3153170223, -15.395408630371094, -88.21524047851562, -36.8080940246582, 9.791062355041504, -0.13042762875556946, 0.2427491843700409, 1.0325226783752441, -2.203720808029175, 0.23261567950248718, 
35, 3153178556, -15.30433464050293, -88.21403503417969, -36.89545440673828, 9.806583404541016, -0.10625626146793365, 0.2373669445514679, 1.0746324062347412, -2.055516481399536, 0.19094130396842957, 
36, 3153186889, -15.275382041931152, -88.2156753540039, -36.91989517211914, 9.803359031677246, -0.13894933462142944, 0.2272593379020691, 1.0552680492401123, -2.2508254051208496, 0.2545158565044403, 
37, 3153195222, -15.200726509094238, -88.2163314819336, -36.99106979370117, 9.799400329589844, -0.12841695547103882, 0.2383430004119873, 0.9926924705505371, -2.2457025051116943, 0.20005998015403748, 
38, 3153203555, -15.170623779296875, -88.21820831298828, -37.01689529418945, 9.823141098022461, -0.13240912556648254, 0.2093772441148758, 1.0895143747329712, -2.3570990562438965, 0.2211149036884308, 
39, 3153211888, -15.139211654663086, -88.21907806396484, -37.04298400878906, 9.807890892028809, -0.13605786859989166, 0.21576380729675293, 1.2177904844284058, -2.31683349609375, 0.3554871678352356, 
40, 3153220221, -15.122583389282227, -88.22039794921875, -37.055809020996094, 9.814535140991211, -0.12350983172655106, 0.24802543222904205, 1.077475666999817, -2.3598906993865967, 0.2720872461795807, 
41, 3153228554, -15.086020469665527, -88.22172546386719, -37.08705139160156, 9.835198402404785, -0.11439123749732971, 0.25239884853363037, 1.1599022150039673, -2.285071611404419, 0.3431154787540436, 
42, 3153236887, -15.099825859069824, -88.22293090820312, -37.069278717041016, 9.790955543518066, -0.13474349677562714, 0.23543895781040192, 1.1101337671279907, -2.397927761077881, 0.3792571723461151, 
43, 3153245220, -15.07790756225586, -88.2245864868164, -37.086639404296875, 9.807896614074707, -0.13496437668800354, 0.24799692630767822, 1.0922294855117798, -2.3581748008728027, 0.37866804003715515, 
44, 3153253553, -15.086591720581055, -88.22590637207031, -37.07330322265625, 9.80955982208252, -0.1280984729528427, 0.23133139312267303, 1.1473256349563599, -2.3555362224578857, 0.37326347827911377, 
45, 3153261886, -15.084464073181152, -88.22745513916016, -37.07032012939453, 9.793401718139648, -0.1273125857114792, 0.246454119682312, 1.2162280082702637, -2.436554193496704, 0.4355829060077667, 
46, 3153270219, -15.089151382446289, -88.23043823242188, -37.06074523925781, 9.819497108459473, -0.13601075112819672, 0.24353468418121338, 1.1240934133529663, -2.494288206100464, 0.32359740138053894, 
47, 3153278552, -15.045626640319824, -88.23176574707031, -37.09967041015625, 9.827691078186035, -0.1474095582962036, 0.2172837108373642, 1.1485551595687866, -2.368189811706543, 0.2931165099143982, 
48, 3153286885, -15.039163589477539, -88.23409271240234, -37.099937438964844, 9.844139099121094, -0.14191566407680511, 0.252024382352829, 1.2457356452941895, -2.36065936088562, 0.31914055347442627, 
49, 3153295218, -14.984904289245605, -88.23475646972656, -37.14952087402344, 9.784244537353516, -0.13182249665260315, 0.26167675852775574, 1.129523754119873, -2.2448573112487793, 0.28563714027404785, 
50, 3153303551, -14.931327819824219, -88.23519897460938, -37.198551177978516, 9.812727928161621, -0.15497219562530518, 0.20755350589752197, 1.1579300165176392, -2.207460641860962, 0.1780061423778534, 
51, 3153311884, -14.796749114990234, -88.23641967773438, -37.32847213745117, 9.828722953796387, -0.15368473529815674, 0.21507646143436432, 1.1390777826309204, -2.255948066711426, -0.023129653185606003, 
52, 3153320217, -14.700481414794922, -88.23796844482422, -37.42052459716797, 9.810417175292969, -0.11974822729825974, 0.23911774158477783, 1.0882337093353271, -2.2684223651885986, -0.003355465130880475, 
53, 3153328550, -14.602201461791992, -88.23963928222656, -37.51422882080078, 9.81840705871582, -0.11406298726797104, 0.24576593935489655, 1.1442264318466187, -2.3369662761688232, 0.09598934650421143, 
54, 3153336883, -14.526793479919434, -88.24063873291016, -37.584693908691406, 9.809948921203613, -0.11447267979383469, 0.22619780898094177, 1.1519362926483154, -2.1890182495117188, 0.10072798281908035, 
55, 3153345216, -14.444694519042969, -88.24119567871094, -37.662471771240234, 9.806138038635254, -0.16232116520404816, 0.2351149618625641, 1.0850831270217896, -2.232280731201172, 0.18297529220581055, 
56, 3153353549, -14.451836585998535, -88.2423095703125, -37.651329040527344, 9.825702667236328, -0.12468932569026947, 0.22020210325717926, 1.0879775285720825, -2.3366074562072754, 0.3754919171333313, 
57, 3153361882, -14.40976333618164, -88.24264526367188, -37.68895721435547, 9.827800750732422, -0.12371945381164551, 0.22941534221172333, 1.1036533117294312, -2.2354824542999268, 0.3352775275707245, 
58, 3153370215, -14.396533012390137, -88.24163818359375, -37.69705581665039, 9.763790130615234, -0.1411401927471161, 0.2334955483675003, 1.1934311389923096, -2.020092248916626, 0.38253581523895264, 
59, 3153378548, -14.359206199645996, -88.24019622802734, -37.72997283935547, 9.818866729736328, -0.1230030283331871, 0.22726191580295563, 1.118970513343811, -2.054978847503662, 0.4003632962703705, 
60, 3153386881, -14.343090057373047, -88.24163818359375, -37.741111755371094, 9.777538299560547, -0.1361403614282608, 0.24036192893981934, 1.1216857433319092, -2.2897846698760986, 0.2986748218536377, 
61, 3153395214, -14.293486595153809, -88.24298095703125, -37.78586196899414, 9.813167572021484, -0.12813198566436768, 0.24800753593444824, 1.1713260412216187, -2.3457515239715576, 0.28235846757888794, 
62, 3153403547, -14.248188018798828, -88.24375915527344, -37.8261604309082, 9.790765762329102, -0.1114899069070816, 0.243364617228508, 1.176884412765503, -2.224135398864746, 0.2087688148021698, 
63, 3153411880, -14.16758918762207, -88.24375915527344, -37.90290451049805, 9.825361251831055, -0.1336423009634018, 0.2533506155014038, 1.0427939891815186, -2.178260326385498, 0.20216035842895508, 
64, 3153420213, -14.112099647521973, -88.24498748779297, -37.954917907714844, 9.785076141357422, -0.1334887593984604, 0.250985324382782, 1.0206376314163208, -2.2753636837005615, 0.15239189565181732, 
65, 3153428546, -14.018083572387695, -88.2458724975586, -38.04574203491211, 9.808140754699707, -0.12138622999191284, 0.22114361822605133, 0.9559361338615417, -2.245830774307251, 0.13156752288341522, 
66, 3153436879, -13.916613578796387, -88.24732971191406, -38.14370346069336, 9.803492546081543, -0.10912780463695526, 0.23143908381462097, 0.9918728470802307, -2.2536940574645996, -0.013678002171218395, 
67, 3153445212, -13.83436107635498, -88.248779296875, -38.22156524658203, 9.795828819274902, -0.11458418518304825, 0.235056072473526, 1.0997086763381958, -2.3311002254486084, 0.16099826991558075, 
68, 3153453545, -13.83251953125, -88.25067901611328, -38.21926498413086, 9.800548553466797, -0.09991734474897385, 0.22816869616508484, 1.0723271369934082, -2.3824820518493652, 0.3325623869895935, 
69, 3153461878, -13.792515754699707, -88.25112915039062, -38.254974365234375, 9.821929931640625, -0.11349524557590485, 0.23772573471069336, 1.0800882577896118, -2.2416296005249023, 0.3417067229747772, 
70, 3153470211, -13.81253433227539, -88.2528076171875, -38.229923248291016, 9.830772399902344, -0.1092040166258812, 0.21361958980560303, 1.1375666856765747, -2.3278729915618896, 0.4320225119590759, 
71, 3153478544, -13.821076393127441, -88.25359344482422, -38.21666717529297, 9.795307159423828, -0.11822782456874847, 0.21163605153560638, 1.142817497253418, -2.347595691680908, 0.5005661845207214, 
72, 3153486877, -13.845107078552246, -88.2530288696289, -38.187652587890625, 9.81451416015625, -0.11667773127555847, 0.21710549294948578, 1.192893385887146, -2.1608171463012695, 0.48886045813560486, 
73, 3153495210, -13.890793800354004, -88.25191497802734, -38.137298583984375, 9.806084632873535, -0.11422820389270782, 0.21188907325267792, 1.1458656787872314, -2.1613550186157227, 0.6861157417297363, 
74, 3153503543, -13.973468780517578, -88.25235748291016, -38.049407958984375, 9.813039779663086, -0.11920945346355438, 0.23143784701824188, 1.1831598281860352, -2.2598414421081543, 0.6863718628883362, 
75, 3153511876, -13.991987228393555, -88.25101470947266, -38.02712631225586, 9.777254104614258, -0.1152181625366211, 0.21189802885055542, 1.0637975931167603, -2.142733097076416, 0.5864762663841248, 
76, 3153520209, -14.061962127685547, -88.25112915039062, -37.951988220214844, 9.798911094665527, -0.12475420534610748, 0.20879821479320526, 1.1735289096832275, -2.254385232925415, 0.6396002173423767, 
77, 3153528542, -14.10133171081543, -88.25135040283203, -37.907814025878906, 9.821118354797363, -0.13731499016284943, 0.24842382967472076, 1.14858078956604, -2.277259349822998, 0.6341188549995422, 
78, 3153536875, -14.142499923706055, -88.25090026855469, -37.861732482910156, 9.795604705810547, -0.1401069611310959, 0.2838435471057892, 1.1133099794387817, -2.1134307384490967, 0.5652934312820435, 
79, 3153545208, -14.129034042358398, -88.25213623046875, -37.87053680419922, 9.80231761932373, -0.09976715594530106, 0.2585802674293518, 1.1486830711364746, -2.373056411743164, 0.40973809361457825, 
80, 3153553541, -14.151683807373047, -88.254150390625, -37.84362030029297, 9.807964324951172, -0.11691775918006897, 0.2255297303199768, 1.0633621215820312, -2.4208014011383057, 0.41496339440345764, 
81, 3153561874, -14.137592315673828, -88.2552719116211, -37.85350799560547, 9.79628849029541, -0.1323527991771698, 0.20876848697662354, 1.0911024808883667, -2.3550240993499756, 0.41109567880630493, 
82, 3153570207, -14.137632369995117, -88.25684356689453, -37.8490104675293, 9.800541877746582, -0.1302119791507721, 0.2380659282207489, 1.1111583709716797, -2.3565351963043213, 0.3493397533893585, 
83, 3153578540, -14.084931373596191, -88.25650787353516, -37.897647857666016, 9.831575393676758, -0.1236182302236557, 0.24771404266357422, 1.0459957122802734, -2.120192527770996, 0.323443740606308, 
84, 3153586873, -14.091704368591309, -88.25628662109375, -37.886837005615234, 9.820056915283203, -0.11015570163726807, 0.19911153614521027, 1.0929210186004639, -2.2248783111572266, 0.4064595103263855, 
85, 3153595206, -14.077898025512695, -88.25605773925781, -37.89738464355469, 9.820749282836914, -0.11003106087446213, 0.22882309556007385, 0.9766836762428284, -2.1801557540893555, 0.45182234048843384, 
86, 3153603539, -14.099980354309082, -88.25740051269531, -37.871158599853516, 9.801562309265137, -0.11321539431810379, 0.22463546693325043, 1.0557804107666016, -2.360761880874634, 0.42869266867637634, 
87, 3153611872, -14.12939167022705, -88.25740051269531, -37.83698272705078, 9.831055641174316, -0.12736228108406067, 0.21736884117126465, 1.1560343503952026, -2.258253335952759, 0.6020497679710388, 
88, 3153620205, -14.164274215698242, -88.25785827636719, -37.79743576049805, 9.79787540435791, -0.11486872285604477, 0.2580624520778656, 1.109314203262329, -2.22467303276062, 0.5132195949554443, 
89, 3153628538, -14.179346084594727, -88.25852966308594, -37.778133392333984, 9.825922966003418, -0.11255162209272385, 0.27219876646995544, 1.0818043947219849, -2.339348077774048, 0.5242850184440613, 
90, 3153636871, -14.236227035522461, -88.259765625, -37.71650695800781, 9.797083854675293, -0.10768532752990723, 0.23070552945137024, 1.1116193532943726, -2.3250555992126465, 0.5715177059173584, 
91, 3153645204, -14.274419784545898, -88.26044464111328, -37.67347717285156, 9.834691047668457, -0.12267294526100159, 0.2261597365140915, 1.1830317974090576, -2.367370128631592, 0.6063529253005981, 
92, 3153653537, -14.30901050567627, -88.26178741455078, -37.63462829589844, 9.770391464233398, -0.13446833193302155, 0.24085074663162231, 1.0727626085281372, -2.359788417816162, 0.4771035611629486, 
93, 3153661870, -14.301209449768066, -88.26268768310547, -37.638755798339844, 9.808448791503906, -0.11442466825246811, 0.25428488850593567, 1.001247525215149, -2.3275909423828125, 0.43883585929870605, 
94, 3153670203, -14.314433097839355, -88.26528930664062, -37.62160110473633, 9.807320594787598, -0.13082797825336456, 0.2253524512052536, 1.020688772201538, -2.447824239730835, 0.37290483713150024, 
95, 3153678536, -14.263245582580566, -88.26573944091797, -37.66944122314453, 9.813401222229004, -0.1091303750872612, 0.20466889441013336, 1.016231894493103, -2.273826837539673, 0.28929996490478516, 
96, 3153686869, -14.273314476013184, -88.26776885986328, -37.65528106689453, 9.81075668334961, -0.11253220587968826, 0.19515612721443176, 1.0733773708343506, -2.445007085800171, 0.36391425132751465, 
97, 3153695202, -14.2805757522583, -88.26765441894531, -37.6444206237793, 9.82717514038086, -0.1026761382818222, 0.2575649917125702, 1.0456116199493408, -2.252490282058716, 0.5145772099494934, 
98, 3153703535, -14.292010307312012, -88.26900482177734, -37.62870788574219, 9.818414688110352, -0.13784486055374146, 0.22916437685489655, 1.0823167562484741, -2.3264386653900146, 0.40097808837890625, 
99, 3153711868, -14.303526878356934, -88.26946258544922, -37.61283493041992, 9.807883262634277, -0.11625859886407852, 0.22153085470199585, 1.1045242547988892, -2.3135030269622803, 0.5181118845939636, 
100, 3153720201, -14.326848030090332, -88.27070617675781, -37.58601379394531, 9.80797004699707, -0.10974737256765366, 0.2100776731967926, 0.9669501185417175, -2.3218536376953125, 0.44050079584121704, 
101, 3153728534, -14.340517044067383, -88.27104949951172, -37.56863021850586, 9.813661575317383, -0.11376423388719559, 0.2075529545545578, 1.0189471244812012, -2.2668087482452393, 0.5360931754112244, 
102, 3153736867, -14.420607566833496, -88.27104949951172, -37.484256744384766, 9.827997207641602, -0.12179668992757797, 0.23437058925628662, 1.121711254119873, -2.309840440750122, 0.6600404381752014, 
103, 3153745200, -14.437978744506836, -88.27025604248047, -37.46235656738281, 9.812782287597656, -0.1255151331424713, 0.22150661051273346, 1.1259890794754028, -2.1618926525115967, 0.5782797336578369, 
104, 3153753533, -14.480388641357422, -88.27115631103516, -37.415283203125, 9.810700416564941, -0.12421490997076035, 0.20785357058048248, 1.0654369592666626, -2.2435250282287598, 0.5373226404190063, 
105, 3153761866, -14.45699405670166, -88.2704849243164, -37.43460464477539, 9.808489799499512, -0.12528041005134583, 0.24682411551475525, 1.0814458131790161, -2.1503920555114746, 0.428974449634552, 
106, 3153770199, -14.460762023925781, -88.2699203491211, -37.425994873046875, 9.804492950439453, -0.12924253940582275, 0.25030654668807983, 1.1423052549362183, -2.1119706630706787, 0.428974449634552, 
107, 3153778532, -14.43985652923584, -88.2685546875, -37.44230651855469, 9.780582427978516, -0.09820041805505753, 0.21579807996749878, 1.1458911895751953, -2.0724732875823975, 0.46007007360458374, 
108, 3153786865, -14.461869239807129, -88.2685546875, -37.41596984863281, 9.820626258850098, -0.10399097204208374, 0.22024071216583252, 1.0410778522491455, -2.133512258529663, 0.4874773323535919, 
109, 3153795198, -14.432903289794922, -88.2683334350586, -37.44096755981445, 9.7976655960083, -0.13749386370182037, 0.22947551310062408, 1.0535262823104858, -2.192655563354492, 0.3954453468322754, 
110, 3153803531, -14.454251289367676, -88.26810455322266, -37.415618896484375, 9.813115119934082, -0.11732982844114304, 0.22156314551830292, 1.0743507146835327, -2.1616363525390625, 0.47997233271598816, 
111, 3153811864, -14.45631217956543, -88.2674331665039, -37.40838623046875, 9.800293922424316, -0.13610661029815674, 0.2252935916185379, 1.189998984336853, -2.1722664833068848, 0.5216979384422302, 
112, 3153820197, -14.473862648010254, -88.26663970947266, -37.386138916015625, 9.836320877075195, -0.12160489708185196, 0.243759885430336, 1.1297286748886108, -2.108614921569824, 0.48143234848976135, 
113, 3153828530, -14.457873344421387, -88.2674331665039, -37.396766662597656, 9.807445526123047, -0.12277530878782272, 0.2003638744354248, 1.2168426513671875, -2.2877607345581055, 0.42418453097343445, 
114, 3153836863, -14.497206687927246, -88.26629638671875, -37.35319519042969, 9.80734634399414, -0.1137344166636467, 0.2014973908662796, 1.139180302619934, -2.153132438659668, 0.5524349808692932, 
115, 3153845196, -14.473823547363281, -88.26663970947266, -37.37165832519531, 9.82493782043457, -0.1344241499900818, 0.22778794169425964, 1.157545804977417, -2.233100175857544, 0.4087391793727875, 
116, 3153853529, -14.503024101257324, -88.26675415039062, -37.33709716796875, 9.81403636932373, -0.10384725034236908, 0.22779162228107452, 1.1731704473495483, -2.1827685832977295, 0.508865237236023, 
117, 3153861862, -14.541815757751465, -88.26675415039062, -37.293495178222656, 9.792197227478027, -0.1068994551897049, 0.2268865704536438, 1.1645126342773438, -2.272674083709717, 0.6317366361618042, 
118, 3153870195, -14.610611915588379, -88.26618957519531, -37.2203254699707, 9.794198036193848, -0.12288296222686768, 0.2082844078540802, 1.0954310894012451, -2.1977269649505615, 0.6512290835380554, 
119, 3153878528, -14.681428909301758, -88.26708984375, -37.14393997192383, 9.802530288696289, -0.12121559679508209, 0.21741029620170593, 1.2219399213790894, -2.371826648712158, 0.7278156876564026, 
120, 3153886861, -14.7972412109375, -88.26708984375, -37.02226638793945, 9.810517311096191, -0.13705219328403473, 0.21338661015033722, 1.2367193698883057, -2.2632482051849365, 0.8145198822021484, 
121, 3153895194, -14.863036155700684, -88.26596069335938, -36.951866149902344, 9.807931900024414, -0.11159821599721909, 0.23348627984523773, 1.144431233406067, -2.178541898727417, 0.7571951746940613, 
122, 3153903527, -14.933156967163086, -88.26629638671875, -36.87726593017578, 9.810385704040527, -0.12003263086080551, 0.22339892387390137, 1.1274234056472778, -2.2952404022216797, 0.6323002576828003, 
123, 3153911860, -14.98247241973877, -88.26675415039062, -36.82339096069336, 9.81591796875, -0.13244196772575378, 0.23964740335941315, 1.1292932033538818, -2.3396553993225098, 0.6521256566047668, 
124, 3153920193, -15.030292510986328, -88.2673110961914, -36.77021408081055, 9.808598518371582, -0.10633544623851776, 0.22460141777992249, 1.1853628158569336, -2.2710604667663574, 0.5554831027984619, 
125, 3153928526, -15.026065826416016, -88.2683334350586, -36.76966094970703, 9.80736255645752, -0.12037870287895203, 0.22034703195095062, 1.1418442726135254, -2.3324320316314697, 0.45256513357162476, 
126, 3153936859, -15.06684398651123, -88.26934814453125, -36.72456359863281, 9.805566787719727, -0.13289774954319, 0.22721178829669952, 1.1014761924743652, -2.3469557762145996, 0.5067136287689209, 
127, 3153945192, -15.059279441833496, -88.27059173583984, -36.72748565673828, 9.81601619720459, -0.13171294331550598, 0.2163851410150528, 1.160286545753479, -2.3917036056518555, 0.4264386296272278, 
128, 3153953525, -15.07747745513916, -88.27184295654297, -36.704017639160156, 9.8135347366333, -0.13269217312335968, 0.2311696708202362, 1.1396414041519165, -2.2765164375305176, 0.4412948787212372, 
129, 3153961858, -15.085967063903809, -88.27274322509766, -36.69125747680664, 9.815000534057617, -0.13617154955863953, 0.2176135629415512, 1.102577567100525, -2.360044479370117, 0.4918574094772339, 
130, 3153970191, -15.159581184387207, -88.27399444580078, -36.6129035949707, 9.808279037475586, -0.13218386471271515, 0.20079149305820465, 1.1700453758239746, -2.4315593242645264, 0.6081203818321228, 
131, 3153978524, -15.163472175598145, -88.27467346191406, -36.604408264160156, 9.83034610748291, -0.12938015162944794, 0.23772138357162476, 1.1082127094268799, -2.273519515991211, 0.4979279339313507, 
132, 3153986857, -15.211304664611816, -88.2745590209961, -36.55148696899414, 9.817118644714355, -0.13169783353805542, 0.23321327567100525, 1.184261441230774, -2.2370448112487793, 0.5658056735992432, 
133, 3153995190, -15.243242263793945, -88.27523803710938, -36.51528549194336, 9.793974876403809, -0.11885009706020355, 0.19564300775527954, 1.1137198209762573, -2.360710382461548, 0.580124020576477, 
134, 3154003523, -15.290867805480957, -88.27546691894531, -36.46228790283203, 9.81753158569336, -0.12179852277040482, 0.21738563477993011, 1.1905368566513062, -2.2355594635009766, 0.5649603605270386, 
135, 3154011856, -15.30538558959961, -88.27523803710938, -36.44330596923828, 9.81494140625, -0.1288156360387802, 0.21037784218788147, 1.1204819679260254, -2.2165791988372803, 0.5538437962532043, 
136, 3154020189, -15.382018089294434, -88.27603912353516, -36.36122512817383, 9.791899681091309, -0.1279883235692978, 0.20932181179523468, 1.181367039680481, -2.3083293437957764, 0.6544053554534912, 
137, 3154028522, -15.40527629852295, -88.27535247802734, -36.33334732055664, 9.826869010925293, -0.11365871876478195, 0.23259024322032928, 1.1781138181686401, -2.2078702449798584, 0.5917015075683594, 
138, 3154036855, -15.435348510742188, -88.27478790283203, -36.29831314086914, 9.806266784667969, -0.12322736531496048, 0.21944253146648407, 1.1495797634124756, -2.1524155139923096, 0.5208783149719238, 
139, 3154045188, -15.450318336486816, -88.27433776855469, -36.278846740722656, 9.788005828857422, -0.11064165085554123, 0.21709765493869781, 1.1414600610733032, -2.2055137157440186, 0.5592228174209595, 
140, 3154053521, -15.475358009338379, -88.27490234375, -36.24856948852539, 9.824100494384766, -0.11306805908679962, 0.22694236040115356, 1.173862099647522, -2.2607123851776123, 0.47351759672164917, 
141, 3154061854, -15.484026908874512, -88.27399444580078, -36.235313415527344, 9.803366661071777, -0.12880441546440125, 0.1992788463830948, 1.1266292333602905, -2.140172004699707, 0.553869366645813, 
142, 3154070187, -15.533385276794434, -88.27433776855469, -36.181854248046875, 9.828171730041504, -0.11931189149618149, 0.23288527131080627, 1.0749398469924927, -2.252720594406128, 0.5644481182098389, 
143, 3154078520, -15.507575988769531, -88.27513122558594, -36.20349884033203, 9.796692848205566, -0.10756273567676544, 0.27487751841545105, 1.0423072576522827, -2.260891914367676, 0.3884783089160919, 
144, 3154086853, -15.557506561279297, -88.27546691894531, -36.14957046508789, 9.804511070251465, -0.11815942823886871, 0.24280747771263123, 1.0557292699813843, -2.2768239974975586, 0.5583263039588928, 
145, 3154095186, -15.550583839416504, -88.2761459350586, -36.151885986328125, 9.807847023010254, -0.0952436551451683, 0.2071666568517685, 1.1470439434051514, -2.3183188438415527, 0.447621613740921, 
146, 3154103519, -15.588506698608398, -88.27728271484375, -36.10970687866211, 9.805558204650879, -0.13584153354167938, 0.2076389193534851, 1.0581880807876587, -2.334635019302368, 0.4990037679672241, 
147, 3154111852, -15.614965438842773, -88.27705383300781, -36.078582763671875, 9.819474220275879, -0.12995320558547974, 0.20137381553649902, 1.1666131019592285, -2.269523859024048, 0.5853493213653564, 
148, 3154120185, -15.691632270812988, -88.27864837646484, -35.997196197509766, 9.797910690307617, -0.1338890939950943, 0.2231985181570053, 1.1140271425247192, -2.4070210456848145, 0.6250513792037964, 
149, 3154128518, -15.702728271484375, -88.28001403808594, -35.98160934448242, 9.810659408569336, -0.14200983941555023, 0.23088644444942474, 1.102423906326294, -2.3914475440979004, 0.49359914660453796, 
150, 3154136851, -15.721091270446777, -88.2818374633789, -35.95906066894531, 9.784839630126953, -0.12774936854839325, 0.2345731258392334, 1.0772963762283325, -2.4038703441619873, 0.4056142270565033, 
151, 3154145184, -15.714164733886719, -88.2828598022461, -35.96188735961914, 9.793699264526367, -0.11878655105829239, 0.2545046806335449, 1.0479167699813843, -2.339834690093994, 0.43581336736679077, 
152, 3154153517, -15.74380111694336, -88.2835464477539, -35.92797088623047, 9.811915397644043, -0.10904025286436081, 0.24604432284832, 1.0998880863189697, -2.3067667484283447, 0.476232647895813, 
153, 3154161850, -15.744027137756348, -88.284912109375, -35.9232292175293, 9.831463813781738, -0.11333845555782318, 0.19218125939369202, 1.1170239448547363, -2.3576624393463135, 0.46081292629241943, 
154, 3154170183, -15.770702362060547, -88.28445434570312, -35.89332580566406, 9.81028938293457, -0.12645886838436127, 0.21387159824371338, 1.0050641298294067, -2.1989822387695312, 0.4940601885318756, 
155, 3154178516, -15.754374504089355, -88.28468322753906, -35.90519332885742, 9.8007230758667, -0.1270168572664261, 0.21672287583351135, 1.112771987915039, -2.260507583618164, 0.42618244886398315, 
156, 3154186849, -15.754117965698242, -88.2869644165039, -35.900638580322266, 9.793171882629395, -0.129853755235672, 0.22558623552322388, 1.1201233863830566, -2.415781259536743, 0.3357897996902466, 
157, 3154195182, -15.729187965393066, -88.28787994384766, -35.921302795410156, 9.832253456115723, -0.11314006894826889, 0.21110428869724274, 1.105830430984497, -2.3195486068725586, 0.3769263029098511, 
158, 3154203515, -15.719429969787598, -88.28948211669922, -35.92621994018555, 9.829833030700684, -0.13920947909355164, 0.24425733089447021, 1.1472232341766357, -2.3652186393737793, 0.3162461519241333, 
159, 3154211848, -15.654882431030273, -88.29039764404297, -35.98704528808594, 9.821417808532715, -0.11364974081516266, 0.20810292661190033, 1.0357755422592163, -2.268780469894409, 0.24168309569358826, 
160, 3154220181, -15.67005729675293, -88.29235076904297, -35.96738052368164, 9.80612564086914, -0.1086638867855072, 0.22584883868694305, 1.0833157300949097, -2.3969802856445312, 0.399210661649704, 
161, 3154228514, -15.637886047363281, -88.29475402832031, -35.995338439941406, 9.789301872253418, -0.12628790736198425, 0.22299914062023163, 1.1044988632202148, -2.4934945106506348, 0.30197903513908386, 
162, 3154236847, -15.640666961669922, -88.29658508300781, -35.9884033203125, 9.82940673828125, -0.1034318208694458, 0.20542801916599274, 1.0707135200500488, -2.403076410293579, 0.3505692183971405, 
163, 3154245180, -15.6405611038208, -88.2983169555664, -35.983558654785156, 9.828569412231445, -0.1171613559126854, 0.21315142512321472, 1.170660138130188, -2.4214162826538086, 0.44303658604621887, 
164, 3154253513, -15.682483673095703, -88.2995834350586, -35.93709182739258, 9.793313980102539, -0.10552070289850235, 0.17336168885231018, 1.081624984741211, -2.3363258838653564, 0.5142441391944885, 
165, 3154261846, -15.683709144592285, -88.3002700805664, -35.93067169189453, 9.832402229309082, -0.12365344166755676, 0.21412566304206848, 1.2017558813095093, -2.314220666885376, 0.47884535789489746, 
166, 3154270179, -15.736260414123535, -88.30073547363281, -35.8730583190918, 9.795473098754883, -0.11365547776222229, 0.23056812584400177, 1.217406153678894, -2.343625783920288, 0.5548684000968933, 
167, 3154278512, -15.735236167907715, -88.30095672607422, -35.869014739990234, 9.8035249710083, -0.1340823769569397, 0.20590707659721375, 1.1932263374328613, -2.2588939666748047, 0.4865296483039856, 
168, 3154286845, -15.780110359191895, -88.3018798828125, -35.81949996948242, 9.795897483825684, -0.1117047667503357, 0.23342588543891907, 1.0975314378738403, -2.3079705238342285, 0.5342488884925842, 
169, 3154295178, -15.787102699279785, -88.3023452758789, -35.8078727722168, 9.809562683105469, -0.128683403134346, 0.20889610052108765, 1.1505018472671509, -2.290911912918091, 0.5045620203018188, 
170, 3154303511, -15.814336776733398, -88.30349731445312, -35.77536392211914, 9.824860572814941, -0.11525385826826096, 0.1934497058391571, 1.186387300491333, -2.358328342437744, 0.4570988416671753, 
171, 3154311844, -15.780196189880371, -88.30465698242188, -35.806007385253906, 9.770808219909668, -0.12483744323253632, 0.23472043871879578, 1.0383884906768799, -2.3475191593170166, 0.3342786133289337, 
172, 3154320177, -15.788911819458008, -88.30708312988281, -35.79304504394531, 9.816339492797852, -0.1363348811864853, 0.2186046689748764, 1.0022978782653809, -2.406893253326416, 0.3704715073108673, 
173, 3154328510, -15.759822845458984, -88.30754089355469, -35.818206787109375, 9.810060501098633, -0.0777711495757103, 0.2160094976425171, 1.0794733762741089, -2.2898356914520264, 0.3703433871269226, 
174, 3154336843, -15.79631233215332, -88.3088150024414, -35.777374267578125, 9.8024263381958, -0.11834314465522766, 0.22624127566814423, 1.085697889328003, -2.3417813777923584, 0.49106329679489136, 
175, 3154345176, -15.7907075881958, -88.30996704101562, -35.778751373291016, 9.804737091064453, -0.12652434408664703, 0.21594129502773285, 1.079294204711914, -2.35697078704834, 0.4381698966026306, 
176, 3154353509, -15.81533432006836, -88.31159210205078, -35.74949264526367, 9.821781158447266, -0.11013064533472061, 0.25639602541923523, 1.0963534116744995, -2.3573038578033447, 0.44567492604255676, 
177, 3154361842, -15.811235427856445, -88.31262969970703, -35.749935150146484, 9.797690391540527, -0.1042850911617279, 0.2075304538011551, 1.031549334526062, -2.3789222240448, 0.43509623408317566, 
178, 3154370175, -15.859949111938477, -88.31344604492188, -35.695648193359375, 9.818391799926758, -0.1279931664466858, 0.22521795332431793, 1.196479320526123, -2.280102252960205, 0.5579677224159241, 
179, 3154378508, -15.901129722595215, -88.31367492675781, -35.65065002441406, 9.794708251953125, -0.11232507228851318, 0.22967755794525146, 1.044663667678833, -2.287351131439209, 0.6290984153747559, 
180, 3154386841, -15.971210479736328, -88.31344604492188, -35.57630157470703, 9.819364547729492, -0.10473710298538208, 0.22752413153648376, 1.0858770608901978, -2.256409168243408, 0.6392160058021545, 
181, 3154395174, -15.98500919342041, -88.31228637695312, -35.5572509765625, 9.793828010559082, -0.1427532136440277, 0.17564557492733002, 1.2154594659805298, -2.1220626831054688, 0.5795348882675171, 
182, 3154403507, -16.059694290161133, -88.31147766113281, -35.47758865356445, 9.80069637298584, -0.12255435436964035, 0.19720236957073212, 1.1615158319473267, -2.140427589416504, 0.6930314898490906, 
183, 3154411840, -16.109148025512695, -88.31147766113281, -35.42217254638672, 9.831310272216797, -0.1345246583223343, 0.19674156606197357, 1.2717339992523193, -2.274083137512207, 0.6699531078338623, 
184, 3154420173, -16.174619674682617, -88.310546875, -35.35226058959961, 9.790775299072266, -0.09503325819969177, 0.23481829464435577, 1.147530436515808, -2.187532424926758, 0.6442108750343323, 
185, 3154428506, -16.22087860107422, -88.30985260009766, -35.30082702636719, 9.80976390838623, -0.12795507907867432, 0.23114491999149323, 1.193175196647644, -2.1914005279541016, 0.6789181232452393, 
186, 3154436839, -16.273923873901367, -88.31043243408203, -35.24309539794922, 9.800951957702637, -0.1298695057630539, 0.22729387879371643, 1.1248618364334106, -2.2788474559783936, 0.5742583274841309, 
187, 3154445172, -16.2976016998291, -88.30996704101562, -35.215213775634766, 9.798417091369629, -0.11781208962202072, 0.19961917400360107, 1.07137930393219, -2.2124550342559814, 0.5868861675262451, 
188, 3154453505, -16.351486206054688, -88.30996704101562, -35.15786361694336, 9.808906555175781, -0.13174933195114136, 0.2081996649503708, 0.9749417304992676, -2.206461191177368, 0.5940325260162354, 
189, 3154461838, -16.37900161743164, -88.30962371826172, -35.12583923339844, 9.807147979736328, -0.12933221459388733, 0.23286820948123932, 1.1416137218475342, -2.2505693435668945, 0.5918297171592712, 
190, 3154470171, -16.42458152770996, -88.31078338623047, -35.07604217529297, 9.795013427734375, -0.12304727733135223, 0.2012820839881897, 1.0387980937957764, -2.298288583755493, 0.537630021572113, 
191, 3154478504, -16.444591522216797, -88.30996704101562, -35.05143737792969, 9.812427520751953, -0.12949763238430023, 0.23563846945762634, 1.1131306886672974, -2.1659653186798096, 0.5890121459960938, 
192, 3154486837, -16.507789611816406, -88.3102035522461, -34.98460006713867, 9.782114028930664, -0.10190080106258392, 0.23071224987506866, 1.0528603792190552, -2.3110954761505127, 0.5980539321899414, 
193, 3154495170, -16.576988220214844, -88.30938720703125, -34.91094207763672, 9.828984260559082, -0.08107374608516693, 0.22383609414100647, 1.1227103471755981, -2.240886926651001, 0.7477434873580933, 
194, 3154503503, -16.656402587890625, -88.30858612060547, -34.82672882080078, 9.812639236450195, -0.10491857677698135, 0.22345221042633057, 1.1388217210769653, -2.1789772510528564, 0.7013817429542542, 
195, 3154511836, -16.71414566040039, -88.30858612060547, -34.76464080810547, 9.8130464553833, -0.11906100064516068, 0.2261781245470047, 1.1114656925201416, -2.280717372894287, 0.6933389902114868, 
196, 3154520169, -16.823999404907227, -88.30846405029297, -34.64849853515625, 9.821133613586426, -0.10012365132570267, 0.21586398780345917, 1.2639985084533691, -2.208587408065796, 0.8103446960449219, 
197, 3154528502, -16.890729904174805, -88.30754089355469, -34.57658767700195, 9.812314987182617, -0.11293680965900421, 0.21835897862911224, 1.2081083059310913, -2.22475004196167, 0.7465652823448181, 
198, 3154536835, -16.97646141052246, -88.30708312988281, -34.485782623291016, 9.80117416381836, -0.12559935450553894, 0.2315651774406433, 1.159236192703247, -2.1957032680511475, 0.7231795191764832, 
199, 3154545168, -16.992820739746094, -88.30684661865234, -34.464317321777344, 9.827959060668945, -0.1354324370622635, 0.2180788666009903, 1.184210181236267, -2.2246475219726562, 0.5597094297409058, 
200, 3154553501, -17.02876091003418, -88.30696105957031, -34.4241828918457, 9.796252250671387, -0.11728575080633163, 0.2065732330083847, 1.1082639694213867, -2.2566399574279785, 0.5173179507255554, 
201, 3154561834, -17.02489471435547, -88.3064956665039, -34.4228630065918, 9.817243576049805, -0.1310609132051468, 0.19613994657993317, 1.1413062810897827, -2.134997844696045, 0.5116827487945557, 
202, 3154570167, -17.045841217041016, -88.30545806884766, -34.39850997924805, 9.817865371704102, -0.1340329945087433, 0.22939372062683105, 1.0013501644134521, -2.1073601245880127, 0.503716766834259, 
203, 3154578500, -17.032320022583008, -88.30487823486328, -34.40803146362305, 9.81198501586914, -0.13945600390434265, 0.23268994688987732, 1.0594176054000854, -2.1347930431365967, 0.47223687171936035, 
204, 3154586833, -17.07157325744629, -88.30487823486328, -34.36493682861328, 9.806974411010742, -0.11078771203756332, 0.2520892918109894, 1.0563182830810547, -2.2722902297973633, 0.5250789523124695, 
205, 3154595166, -17.082868576049805, -88.30603790283203, -34.34843826293945, 9.805540084838867, -0.1132410317659378, 0.23116374015808105, 1.186233639717102, -2.3636560440063477, 0.4995672404766083, 
206, 3154603499, -17.124008178710938, -88.3064956665039, -34.30316925048828, 9.818231582641602, -0.10789242386817932, 0.20040705800056458, 1.0679981708526611, -2.268319606781006, 0.5340439677238464, 
207, 3154611832, -17.155925750732422, -88.30719757080078, -34.26665496826172, 9.828530311584473, -0.12148729711771011, 0.20146141946315765, 1.141127109527588, -2.3506696224212646, 0.5761794447898865, 
208, 3154620165, -17.228015899658203, -88.30696105957031, -34.190269470214844, 9.797375679016113, -0.11546217650175095, 0.22190169990062714, 1.0636695623397827, -2.236840009689331, 0.6574277877807617, 
209, 3154628498, -17.277751922607422, -88.30603790283203, -34.13571548461914, 9.814443588256836, -0.13025815784931183, 0.19383078813552856, 1.1670740842819214, -2.1746227741241455, 0.6978213787078857, 
210, 3154636831, -17.369937896728516, -88.30719757080078, -34.03820037841797, 9.79744815826416, -0.14856049418449402, 0.2566259801387787, 1.1614646911621094, -2.362170457839966, 0.6965151429176331, 
211, 3154645164, -17.377910614013672, -88.30741882324219, -34.02580642700195, 9.813876152038574, -0.13244189321994781, 0.20782403647899628, 1.1130794286727905, -2.2773873805999756, 0.5108887553215027, 
212, 3154653497, -17.395946502685547, -88.30741882324219, -34.004554748535156, 9.815370559692383, -0.125026136636734, 0.19226166605949402, 1.0108529329299927, -2.275466203689575, 0.44313904643058777, 
213, 3154661830, -17.408113479614258, -88.308349609375, -33.988563537597656, 9.784185409545898, -0.13532628118991852, 0.2093726545572281, 1.0184861421585083, -2.3146305084228516, 0.5113497972488403, 
214, 3154670163, -17.45081329345703, -88.30938720703125, -33.94075393676758, 9.82669448852539, -0.1293935477733612, 0.21387037634849548, 1.191586971282959, -2.3610177040100098, 0.5127585530281067, 
215, 3154678496, -17.440107345581055, -88.30962371826172, -33.94736099243164, 9.793028831481934, -0.137863889336586, 0.2202223837375641, 1.0848524570465088, -2.268832206726074, 0.44347208738327026, 
216, 3154686829, -17.472272872924805, -88.31031799316406, -33.91041946411133, 9.833199501037598, -0.09835641086101532, 0.23503106832504272, 1.1170496940612793, -2.262223720550537, 0.5038448572158813, 
217, 3154695162, -17.47173309326172, -88.30962371826172, -33.90601348876953, 9.830488204956055, -0.12963919341564178, 0.23592741787433624, 1.151782512664795, -2.1218321323394775, 0.5280758738517761, 
218, 3154703495, -17.498205184936523, -88.30985260009766, -33.87415313720703, 9.822428703308105, -0.10765499621629715, 0.24724800884723663, 1.2526257038116455, -2.2682430744171143, 0.4841475188732147, 
219, 3154711828, -17.487808227539062, -88.30892944335938, -33.879825592041016, 9.798524856567383, -0.12175461649894714, 0.24216631054878235, 1.1496565341949463, -2.1223697662353516, 0.49152427911758423, 
220, 3154720161, -17.53755760192871, -88.30904388427734, -33.82522964477539, 9.803764343261719, -0.12246610224246979, 0.22967958450317383, 1.1273465156555176, -2.211481809616089, 0.5859640836715698, 
221, 3154728494, -17.5742244720459, -88.30858612060547, -33.7834358215332, 9.799443244934082, -0.09652441740036011, 0.22348356246948242, 1.1913565397262573, -2.2413992881774902, 0.6314036846160889, 
222, 3154736827, -17.614456176757812, -88.30765533447266, -33.73828125, 9.825126647949219, -0.11931220442056656, 0.21342727541923523, 1.1832112073898315, -2.1319496631622314, 0.5764611959457397, 
223, 3154745160, -17.63318634033203, -88.3064956665039, -33.7142333984375, 9.79432201385498, -0.1322181671857834, 0.23032191395759583, 1.213384747505188, -2.1409401893615723, 0.5964146256446838, 
224, 3154753493, -17.701663970947266, -88.3064956665039, -33.64060974121094, 9.818281173706055, -0.12263065576553345, 0.22404895722866058, 1.160286545753479, -2.226466178894043, 0.6515108942985535, 
225, 3154761826, -17.73616600036621, -88.30534362792969, -33.60090637207031, 9.795042991638184, -0.10558485239744186, 0.22264207899570465, 1.1947633028030396, -2.1327950954437256, 0.6580425500869751, 
226, 3154770159, -17.81544303894043, -88.30487823486328, -33.51647186279297, 9.788089752197266, -0.12707912921905518, 0.22473013401031494, 1.217739224433899, -2.2416555881500244, 0.6906238198280334, 
227, 3154778492, -17.843120574951172, -88.3044204711914, -33.4831657409668, 9.803204536437988, -0.10498668998479843, 0.21622250974178314, 1.2183538675308228, -2.1717541217803955, 0.6203640103340149, 
228, 3154786825, -17.9099063873291, -88.3045425415039, -33.41081237792969, 9.84078311920166, -0.11001384258270264, 0.2116623818874359, 1.2166121006011963, -2.2765676975250244, 0.6329405903816223, 
229, 3154795158, -17.9237003326416, -88.30315399169922, -33.39213943481445, 9.811713218688965, -0.12509697675704956, 0.19441236555576324, 1.169328212738037, -2.0665054321289062, 0.6007434725761414, 
230, 3154803491, -17.971099853515625, -88.30257415771484, -33.3398323059082, 9.805270195007324, -0.12028666585683823, 0.21189232170581818, 1.149451732635498, -2.1784396171569824, 0.5916247963905334, 
231, 3154811824, -17.983612060546875, -88.3016586303711, -33.32301712036133, 9.811702728271484, -0.13484494388103485, 0.22774556279182434, 1.1077516078948975, -2.158639669418335, 0.5653445720672607, 
232, 3154820157, -17.985374450683594, -88.30142211914062, -33.31599807739258, 9.82940673828125, -0.12584714591503143, 0.21447636187076569, 1.2059309482574463, -2.140735387802124, 0.4354548454284668, 
233, 3154828490, -17.972625732421875, -88.30004119873047, -33.32356643676758, 9.805320739746094, -0.1322179138660431, 0.19844791293144226, 1.1910234689712524, -2.059384346008301, 0.5055609345436096, 
234, 3154836823, -18.011838912963867, -88.2999267578125, -33.27849197387695, 9.81649398803711, -0.11290698498487473, 0.22191128134727478, 1.2768056392669678, -2.21811580657959, 0.551845908164978, 
235, 3154845156, -18.031875610351562, -88.29774475097656, -33.252906799316406, 9.803229331970215, -0.12674862146377563, 0.20250049233436584, 1.273270845413208, -2.0470385551452637, 0.6352458596229553, 
236, 3154853489, -18.08099365234375, -88.29727935791016, -33.19809341430664, 9.790885925292969, -0.11603126674890518, 0.21994663774967194, 1.2194039821624756, -2.1636340618133545, 0.606455385684967, 
237, 3154861822, -18.126317977905273, -88.2963638305664, -33.14714050292969, 9.797426223754883, -0.11020176112651825, 0.23371544480323792, 1.246401309967041, -2.1746480464935303, 0.6881904602050781, 
238, 3154870155, -18.200695037841797, -88.29624938964844, -33.06732940673828, 9.810822486877441, -0.10961618274450302, 0.23145714402198792, 1.2033183574676514, -2.2196271419525146, 0.6842203140258789, 
239, 3154878488, -18.257450103759766, -88.29521942138672, -33.00676727294922, 9.798772811889648, -0.12431854754686356, 0.24219940602779388, 1.0595201253890991, -2.2069225311279297, 0.7128570079803467, 
240, 3154886821, -18.346803665161133, -88.29349517822266, -32.912662506103516, 9.80215072631836, -0.12114223837852478, 0.21416155993938446, 1.1465829610824585, -2.092811107635498, 0.7795308232307434, 
241, 3154895154, -18.39731216430664, -88.29325866699219, -32.85783386230469, 9.804064750671387, -0.13466748595237732, 0.24106980860233307, 1.1107741594314575, -2.3007218837738037, 0.6611673831939697, 
242, 3154903487, -18.46233558654785, -88.29280090332031, -32.7877082824707, 9.810667037963867, -0.1141827404499054, 0.1895865648984909, 1.1991688013076782, -2.211430549621582, 0.6510242223739624, 
243, 3154911820, -18.495323181152344, -88.29280090332031, -32.750343322753906, 9.81688117980957, -0.12733860313892365, 0.2694516181945801, 1.0797297954559326, -2.251312017440796, 0.6113733649253845, 
244, 3154920153, -18.492389678955078, -88.29280090332031, -32.7479133605957, 9.818002700805664, -0.11539408564567566, 0.23758043348789215, 1.1847224235534668, -2.1405818462371826, 0.41877996921539307, 
245, 3154928486, -18.457988739013672, -88.29268646240234, -32.77788543701172, 9.79801082611084, -0.11394311487674713, 0.23851805925369263, 1.1048572063446045, -2.197035312652588, 0.3771567642688751, 
246, 3154936819, -18.454753875732422, -88.2940673828125, -32.77656173706055, 9.825000762939453, -0.10797059535980225, 0.21397821605205536, 1.1109275817871094, -2.3157572746276855, 0.3552309572696686, 
247, 3154945152, -18.43794822692871, -88.29475402832031, -32.7888069152832, 9.80073356628418, -0.12143918126821518, 0.22657544910907745, 1.1221212148666382, -2.285122871398926, 0.41391322016716003, 
248, 3154953485, -18.467374801635742, -88.2955551147461, -32.755157470703125, 9.805094718933105, -0.1047264039516449, 0.21955978870391846, 1.1138222217559814, -2.3386566638946533, 0.4724161624908447, 
249, 3154961818, -18.45680809020996, -88.29544067382812, -32.761070251464844, 9.805095672607422, -0.1234634667634964, 0.2264833301305771, 1.1368494033813477, -2.2214715480804443, 0.4589174687862396, 
250, 3154970151, -18.5069637298584, -88.2963638305664, -32.70657730102539, 9.797660827636719, -0.12327296286821365, 0.20814627408981323, 1.0666664838790894, -2.3317408561706543, 0.5510262846946716, 
251, 3154978484, -18.52623748779297, -88.29705047607422, -32.68268966674805, 9.80969524383545, -0.12647093832492828, 0.23718123137950897, 1.1138222217559814, -2.306126594543457, 0.541549026966095, 
252, 3154986817, -18.578777313232422, -88.2976303100586, -32.62593460083008, 9.786450386047363, -0.13855169713497162, 0.2555990517139435, 1.0854417085647583, -2.3123252391815186, 0.5679829120635986, 
253, 3154995150, -18.570690155029297, -88.29727935791016, -32.62994384765625, 9.823168754577637, -0.1200348287820816, 0.2585855722427368, 1.0814458131790161, -2.1965231895446777, 0.4751056134700775, 
254, 3155003483, -18.601821899414062, -88.29866027832031, -32.59417724609375, 9.805703163146973, -0.14270973205566406, 0.18339185416698456, 1.1183301210403442, -2.3876304626464844, 0.46040305495262146, 
255, 3155011816, -18.60610580444336, -88.2983169555664, -32.5858154296875, 9.823551177978516, -0.09750594198703766, 0.2267880141735077, 1.0709439516067505, -2.1974198818206787, 0.5217235684394836, 
256, 3155020149, -18.635215759277344, -88.29934692382812, -32.551490783691406, 9.82958698272705, -0.1283293515443802, 0.23171822726726532, 1.1786775588989258, -2.308431625366211, 0.484454870223999, 
257, 3155028482, -18.612146377563477, -88.29866027832031, -32.57011032104492, 9.81522274017334, -0.12147582322359085, 0.21540583670139313, 1.1439958810806274, -2.1481122970581055, 0.43683797121047974, 
258, 3155036815, -18.628860473632812, -88.29843139648438, -32.548828125, 9.799812316894531, -0.11251693218946457, 0.24084444344043732, 1.0950727462768555, -2.155489206314087, 0.48591485619544983, 
259, 3155045148, -18.63216209411621, -88.2975082397461, -32.541316986083984, 9.825069427490234, -0.11059007793664932, 0.24020466208457947, 1.0697658061981201, -2.1379945278167725, 0.5381422638893127, 
260, 3155053481, -18.666240692138672, -88.29658508300781, -32.503501892089844, 9.81558895111084, -0.11820390820503235, 0.21921730041503906, 1.0137473344802856, -2.111330270767212, 0.5638077259063721, 
261, 3155061814, -18.6811580657959, -88.29612731933594, -32.48435592651367, 9.84854507446289, -0.12673644721508026, 0.2092147022485733, 1.0967631340026855, -2.2058210372924805, 0.5585055947303772, 
262, 3155070147, -18.712772369384766, -88.29544067382812, -32.448265075683594, 9.780985832214355, -0.1056770384311676, 0.2408788949251175, 1.06792151927948, -2.114788055419922, 0.5560466647148132, 
263, 3155078480, -18.722631454467773, -88.29475402832031, -32.4341926574707, 9.813944816589355, -0.11422634869813919, 0.23083354532718658, 1.1124646663665771, -2.1870970726013184, 0.5473121404647827, 
264, 3155086813, -18.78980255126953, -88.29544067382812, -32.361976623535156, 9.805770874023438, -0.14253480732440948, 0.2143145352602005, 1.1662033796310425, -2.3048202991485596, 0.6290984153747559, 
265, 3155095146, -18.7742919921875, -88.29509735107422, -32.373138427734375, 9.810826301574707, -0.11336126923561096, 0.22375723719596863, 1.1116706132888794, -2.205334186553955, 0.4445478320121765, 
266, 3155103479, -18.80484390258789, -88.29486846923828, -32.3381462097168, 9.811857223510742, -0.11746900528669357, 0.2383228987455368, 1.102270245552063, -2.193808078765869, 0.5282552242279053, 
267, 3155111812, -18.839143753051758, -88.2958984375, -32.29951477050781, 9.80888557434082, -0.1274825483560562, 0.22676867246627808, 1.0601091384887695, -2.3561251163482666, 0.5811485648155212, 
268, 3155120145, -18.887409210205078, -88.29612731933594, -32.247642517089844, 9.805355072021484, -0.12842275202274323, 0.2351548969745636, 1.0595967769622803, -2.3218023777008057, 0.5487722158432007, 
269, 3155128478, -18.90167236328125, -88.29796600341797, -32.2283821105957, 9.800881385803223, -0.13024233281612396, 0.2347903549671173, 1.1279101371765137, -2.425873041152954, 0.48099690675735474, 
270, 3155136811, -18.93046760559082, -88.29912567138672, -32.195220947265625, 9.799108505249023, -0.13556168973445892, 0.23354440927505493, 1.1152052879333496, -2.3561253547668457, 0.46542349457740784, 
271, 3155145144, -18.934064865112305, -88.29912567138672, -32.187416076660156, 9.812071800231934, -0.1189146414399147, 0.20494496822357178, 1.1103386878967285, -2.2571520805358887, 0.4999258816242218, 
272, 3155153477, -18.967355728149414, -88.3002700805664, -32.150245666503906, 9.806367874145508, -0.11063842475414276, 0.20663729310035706, 1.0163601636886597, -2.3363513946533203, 0.48617100715637207, 
273, 3155161810, -18.953371047973633, -88.30073547363281, -32.159114837646484, 9.80516529083252, -0.12603627145290375, 0.2164996862411499, 1.189435362815857, -2.2754404544830322, 0.4296915829181671, 
274, 3155170143, -18.988977432250977, -88.30223083496094, -32.119407653808594, 9.80495548248291, -0.11905518919229507, 0.2018546164035797, 1.0452274084091187, -2.368189811706543, 0.4843011796474457, 
275, 3155178476, -18.989364624023438, -88.30257415771484, -32.114925384521484, 9.823132514953613, -0.1183178722858429, 0.25539013743400574, 1.1103640794754028, -2.312452793121338, 0.46834346652030945, 
276, 3155186809, -19.0036563873291, -88.3023452758789, -32.096160888671875, 9.799609184265137, -0.1172608807682991, 0.2226477414369583, 1.1016554832458496, -2.175365686416626, 0.4710586369037628, 
277, 3155195142, -19.00731658935547, -88.3016586303711, -32.088043212890625, 9.845803260803223, -0.11021129786968231, 0.22881795465946198, 1.096788763999939, -2.151723623275757, 0.5358113646507263, 
278, 3155203475, -19.06391716003418, -88.30154418945312, -32.02716064453125, 9.795954704284668, -0.12029526382684708, 0.18914833664894104, 1.067486047744751, -2.218679666519165, 0.6153180003166199, 
279, 3155211808, -19.113567352294922, -88.30142211914062, -31.9728946685791, 9.823628425598145, -0.11141670495271683, 0.2470199167728424, 1.1453020572662354, -2.2802557945251465, 0.6659060716629028, 
280, 3155220141, -19.15180015563965, -88.30107879638672, -31.92998695373535, 9.779705047607422, -0.12290885299444199, 0.2437187284231186, 1.1333659887313843, -2.2118146419525146, 0.5511799454689026, 
281, 3155228474, -19.161584854125977, -88.3002700805664, -31.91554832458496, 9.816315650939941, -0.11757844686508179, 0.2654006779193878, 1.162899136543274, -2.1570515632629395, 0.5594533681869507, 
282, 3155236807, -19.235383987426758, -88.30015563964844, -31.83625030517578, 9.784863471984863, -0.12573404610157013, 0.21372538805007935, 1.1842100620269775, -2.241219997406006, 0.678841233253479, 
283, 3155245140, -19.29436683654785, -88.2995834350586, -31.773101806640625, 9.813788414001465, -0.13960735499858856, 0.2193952202796936, 1.1089298725128174, -2.2635042667388916, 0.7037127017974854, 
284, 3155253473, -19.331802368164062, -88.30049896240234, -31.73002052307129, 9.800872802734375, -0.13590091466903687, 0.22543473541736603, 1.1815204620361328, -2.2701895236968994, 0.5330193638801575, 
285, 3155261806, -19.33267593383789, -88.30095672607422, -31.724292755126953, 9.807637214660645, -0.12248251587152481, 0.2554609775543213, 1.1985284090042114, -2.3079705238342285, 0.47408103942871094, 
286, 3155270139, -19.359867095947266, -88.30073547363281, -31.691843032836914, 9.790994644165039, -0.13370342552661896, 0.21511659026145935, 1.200551986694336, -2.211635112762451, 0.5125023722648621, 
287, 3155278472, -19.353439331054688, -88.29969787597656, -31.693796157836914, 9.796748161315918, -0.11905045062303543, 0.26476725935935974, 1.0989660024642944, -2.092478036880493, 0.5183936357498169, 
288, 3155286805, -19.356048583984375, -88.30015563964844, -31.686254501342773, 9.812410354614258, -0.11380314081907272, 0.20191794633865356, 1.1692259311676025, -2.240861415863037, 0.4112749993801117, 
289, 3155295138, -19.33441734313965, -88.30004119873047, -31.703594207763672, 9.822288513183594, -0.10797768831253052, 0.19912514090538025, 1.1095445156097412, -2.1889922618865967, 0.4280010163784027, 
290, 3155303471, -19.395179748535156, -88.30107879638672, -31.638795852661133, 9.793631553649902, -0.13044658303260803, 0.20182886719703674, 1.0416157245635986, -2.381124973297119, 0.5771783590316772, 
291, 3155311804, -19.362031936645508, -88.30062103271484, -31.666587829589844, 9.801711082458496, -0.10850884765386581, 0.2160997986793518, 1.197350263595581, -2.1123547554016113, 0.4150402247905731, 
292, 3155320137, -19.38861846923828, -88.30015563964844, -31.635807037353516, 9.830958366394043, -0.12459199875593185, 0.22137923538684845, 1.0621070861816406, -2.160637617111206, 0.5248740911483765, 
293, 3155328470, -19.43434715270996, -88.29877471923828, -31.585670471191406, 9.79613208770752, -0.1307981014251709, 0.23813249170780182, 1.1387193202972412, -2.155745506286621, 0.6935438513755798, 
294, 3155336803, -19.484155654907227, -88.29739379882812, -31.53172492980957, 9.824685096740723, -0.12590178847312927, 0.22278496623039246, 1.1010150909423828, -2.138507127761841, 0.6244110465049744, 
295, 3155345136, -19.484956741333008, -88.29658508300781, -31.526193618774414, 9.80302906036377, -0.12068712711334229, 0.23667322099208832, 1.1208149194717407, -2.116760492324829, 0.5378605127334595, 
296, 3155353469, -19.52790641784668, -88.29682159423828, -31.478300094604492, 9.826343536376953, -0.12026050686836243, 0.21501551568508148, 1.144405722618103, -2.2329466342926025, 0.5651140809059143, 
297, 3155361802, -19.555238723754883, -88.29682159423828, -31.446430206298828, 9.79350757598877, -0.12615688145160675, 0.23821614682674408, 1.1311116218566895, -2.2861216068267822, 0.5795091986656189, 
298, 3155370135, -19.59086799621582, -88.29624938964844, -31.406620025634766, 9.801565170288086, -0.13703925907611847, 0.2503131031990051, 1.084801197052002, -2.1755197048187256, 0.5560466647148132, 
299, 3155378468, -19.610126495361328, -88.29498291015625, -31.382707595825195, 9.821074485778809, -0.10945794731378555, 0.2295653074979782, 1.1226847171783447, -2.1162734031677246, 0.6096060276031494, 
300, 3155386801, -19.64003562927246, -88.29417419433594, -31.34815788269043, 9.812950134277344, -0.10767306387424469, 0.23555512726306915, 1.1341599225997925, -2.129132032394409, 0.5520764589309692, 
301, 3155395134, -19.62851333618164, -88.2940673828125, -31.354331970214844, 9.79616928100586, -0.12904348969459534, 0.24001441895961761, 1.250627875328064, -2.24029803276062, 0.4522833824157715, 
302, 3155403467, -19.680706024169922, -88.29544067382812, -31.297744750976562, 9.808509826660156, -0.12482322752475739, 0.19918613135814667, 1.045662760734558, -2.342755079269409, 0.5592740178108215, 
303, 3155411800, -19.68429183959961, -88.29566955566406, -31.288984298706055, 9.79601764678955, -0.12789928913116455, 0.2340238243341446, 1.2220678329467773, -2.2739036083221436, 0.4958275556564331, 
304, 3155420133, -19.73453712463379, -88.29612731933594, -31.233386993408203, 9.829595565795898, -0.12629692256450653, 0.2523575723171234, 1.1809059381484985, -2.274723529815674, 0.580713152885437, 
305, 3155428466, -19.747114181518555, -88.29612731933594, -31.215852737426758, 9.812925338745117, -0.10987232625484467, 0.20586378872394562, 1.1569565534591675, -2.2404260635375977, 0.5413953065872192, 
306, 3155436799, -19.77324104309082, -88.29647064208984, -31.184940338134766, 9.817961692810059, -0.12818561494350433, 0.22080689668655396, 1.1403329372406006, -2.2516961097717285, 0.4952640235424042, 
307, 3155445132, -19.78096580505371, -88.29670715332031, -31.173025131225586, 9.82781982421875, -0.12250956147909164, 0.23846229910850525, 1.1474794149398804, -2.3247480392456055, 0.49014121294021606, 
308, 3155453465, -19.821739196777344, -88.2976303100586, -31.127883911132812, 9.771781921386719, -0.13161517679691315, 0.21097643673419952, 1.0554472208023071, -2.3224425315856934, 0.5243361592292786, 
309, 3155461798, -19.834548950195312, -88.29774475097656, -31.110788345336914, 9.821290016174316, -0.14011479914188385, 0.2360726296901703, 1.1162556409835815, -2.2981090545654297, 0.5181887745857239, 
310, 3155470131, -19.864608764648438, -88.2978515625, -31.07634735107422, 9.783873558044434, -0.14318658411502838, 0.23602694272994995, 1.097377896308899, -2.2066917419433594, 0.5264877676963806, 
311, 3155478464, -19.879932403564453, -88.29853820800781, -31.056276321411133, 9.830610275268555, -0.13071569800376892, 0.23413729667663574, 1.1384376287460327, -2.3273866176605225, 0.5185986757278442, 
312, 3155486797, -19.903823852539062, -88.29934692382812, -31.028152465820312, 9.782051086425781, -0.13185274600982666, 0.2450573444366455, 1.0885154008865356, -2.3102505207061768, 0.46760067343711853, 
313, 3155495130, -19.907907485961914, -88.30084228515625, -31.019994735717773, 9.821191787719727, -0.12228292226791382, 0.19267244637012482, 1.0638744831085205, -2.4217746257781982, 0.4387590289115906, 
314, 3155503463, -19.9282169342041, -88.30245971679688, -30.994718551635742, 9.791101455688477, -0.14443202316761017, 0.21363712847232819, 1.1240935325622559, -2.350515842437744, 0.43875905871391296, 
315, 3155511796, -19.89940643310547, -88.30280303955078, -31.018884658813477, 9.830939292907715, -0.13253091275691986, 0.21763065457344055, 1.1609011888504028, -2.270010471343994, 0.3732890188694, 
316, 3155520129, -19.901165008544922, -88.30487823486328, -31.013864517211914, 9.776601791381836, -0.13867305219173431, 0.2383546084165573, 0.9663099050521851, -2.4056122303009033, 0.34247514605522156, 
317, 3155528462, -19.872596740722656, -88.30603790283203, -31.038602828979492, 9.810749053955078, -0.1114678680896759, 0.22902421653270721, 1.0447916984558105, -2.3472118377685547, 0.34373021125793457, 
318, 3155536795, -19.864171981811523, -88.30799865722656, -31.043441772460938, 9.808518409729004, -0.12759359180927277, 0.1891878992319107, 1.024787187576294, -2.432558536529541, 0.2980857193470001, 
319, 3155545128, -19.80526351928711, -88.3088150024414, -31.098079681396484, 9.816479682922363, -0.11634461581707001, 0.22576910257339478, 1.0557292699813843, -2.2093560695648193, 0.27810657024383545, 
320, 3155553461, -19.79535675048828, -88.30996704101562, -31.104005813598633, 9.804648399353027, -0.1295807659626007, 0.193047434091568, 1.0213805437088013, -2.2803330421447754, 0.3477773070335388, 
321, 3155561794, -19.795814514160156, -88.310546875, -31.099788665771484, 9.835386276245117, -0.1155051589012146, 0.21463514864444733, 1.029244065284729, -2.304692268371582, 0.4685996472835541, 
322, 3155570127, -19.801725387573242, -88.31089782714844, -31.090608596801758, 9.796552658081055, -0.12375465780496597, 0.20721323788166046, 1.0150023698806763, -2.266885280609131, 0.40994298458099365, 
323, 3155578460, -19.80608367919922, -88.3106689453125, -31.08135414123535, 9.836588859558105, -0.11008887737989426, 0.22240842878818512, 1.1479403972625732, -2.2112770080566406, 0.5192902088165283, 
324, 3155586793, -19.857833862304688, -88.31031799316406, -31.02507209777832, 9.83945369720459, -0.1119779571890831, 0.2061319798231125, 1.08810555934906, -2.1663241386413574, 0.6232327818870544, 
325, 3155595126, -19.894136428833008, -88.3100814819336, -30.983562469482422, 9.806181907653809, -0.11394648253917694, 0.23698748648166656, 1.1320852041244507, -2.196420669555664, 0.6453635096549988, 
326, 3155603459, -19.950849533081055, -88.30973815917969, -30.923545837402344, 9.814445495605469, -0.12360753864049911, 0.2429797649383545, 1.0396177768707275, -2.272956132888794, 0.6002824306488037, 
327, 3155611792, -19.992008209228516, -88.30927276611328, -30.87842559814453, 9.785717010498047, -0.14000076055526733, 0.22779960930347443, 1.0506318807601929, -2.2476234436035156, 0.6423409581184387, 
328, 3155620125, -20.04471206665039, -88.30904388427734, -30.821361541748047, 9.822713851928711, -0.13053426146507263, 0.18606948852539062, 1.0724296569824219, -2.1868410110473633, 0.618161141872406, 
329, 3155628458, -20.07992935180664, -88.30812072753906, -30.78204345703125, 9.804137229919434, -0.129329115152359, 0.2435177117586136, 1.0885664224624634, -2.192603826522827, 0.6402149796485901, 
330, 3155636791, -20.120580673217773, -88.30719757080078, -30.737323760986328, 9.817605972290039, -0.13373889029026031, 0.2322702705860138, 1.0741969347000122, -2.1394803524017334, 0.5914967060089111, 
331, 3155645124, -20.152088165283203, -88.30696105957031, -30.7014102935791, 9.802953720092773, -0.12709906697273254, 0.21658863127231598, 1.074709415435791, -2.244088888168335, 0.6080947518348694, 
332, 3155653457, -20.184120178222656, -88.30892944335938, -30.664485931396484, 9.806798934936523, -0.10731624811887741, 0.24011129140853882, 1.1636676788330078, -2.4465181827545166, 0.4485436975955963, 
333, 3155661790, -20.181903839111328, -88.30927276611328, -30.662687301635742, 9.812454223632812, -0.14117835462093353, 0.2193428874015808, 1.0498634576797485, -2.2421164512634277, 0.4802284836769104, 
334, 3155670123, -20.200302124023438, -88.30973815917969, -30.639436721801758, 9.80984115600586, -0.11229416728019714, 0.1993313580751419, 1.1612086296081543, -2.2792060375213623, 0.4590199291706085, 
335, 3155678456, -20.19742774963379, -88.31043243408203, -30.638141632080078, 9.811452865600586, -0.1317160427570343, 0.21180778741836548, 1.062849760055542, -2.28817081451416, 0.4618118405342102, 
336, 3155686789, -20.244359970092773, -88.3110122680664, -30.587421417236328, 9.808011054992676, -0.12122485041618347, 0.21074065566062927, 1.0723527669906616, -2.3816370964050293, 0.525591254234314, 
337, 3155695122, -20.26990509033203, -88.31147766113281, -30.558191299438477, 9.8123779296875, -0.12013988941907883, 0.23464305698871613, 1.0366463661193848, -2.3183443546295166, 0.5548683404922485, 
338, 3155703455, -20.325300216674805, -88.31194305419922, -30.497922897338867, 9.850175857543945, -0.13236376643180847, 0.21652571856975555, 1.1426893472671509, -2.298288345336914, 0.5912661552429199, 
339, 3155711788, -20.35462760925293, -88.31136322021484, -30.463659286499023, 9.80733585357666, -0.12698577344417572, 0.24538637697696686, 1.1411526203155518, -2.1767489910125732, 0.6259735226631165, 
340, 3155720121, -20.40308380126953, -88.31171417236328, -30.410720825195312, 9.82260513305664, -0.13232551515102386, 0.22643806040287018, 1.0911024808883667, -2.2788472175598145, 0.5708004832267761, 
341, 3155728454, -20.42905616760254, -88.31171417236328, -30.38036346435547, 9.785063743591309, -0.12301792204380035, 0.21091464161872864, 1.0788843631744385, -2.2412712574005127, 0.588013231754303, 
342, 3155736787, -20.509235382080078, -88.31204986572266, -30.295793533325195, 9.814935684204102, -0.13499543070793152, 0.23489710688591003, 1.1156408786773682, -2.344752788543701, 0.6652145385742188, 
343, 3155745120, -20.529115676879883, -88.31344604492188, -30.27010726928711, 9.802247047424316, -0.1348952054977417, 0.2263370156288147, 1.2596184015274048, -2.393599033355713, 0.5139880180358887, 
344, 3155753453, -20.57255744934082, -88.31367492675781, -30.220985412597656, 9.803790092468262, -0.1408887803554535, 0.216522216796875, 1.2231181859970093, -2.25274658203125, 0.565421462059021, 
345, 3155761786, -20.587675094604492, -88.31298065185547, -30.201406478881836, 9.82422161102295, -0.1104065477848053, 0.22801540791988373, 1.154190182685852, -2.206768751144409, 0.563474714756012, 
346, 3155770119, -20.635129928588867, -88.31379699707031, -30.14938735961914, 9.799131393432617, -0.108826644718647, 0.1983247846364975, 1.1221979856491089, -2.3587892055511475, 0.5350430011749268, 
347, 3155778452, -20.619083404541016, -88.31414031982422, -30.16063690185547, 9.805591583251953, -0.11471627652645111, 0.23271656036376953, 1.1406915187835693, -2.2431154251098633, 0.4315358102321625, 
348, 3155786785, -20.63455581665039, -88.3147201538086, -30.140409469604492, 9.84186840057373, -0.12158042192459106, 0.22095097601413727, 1.1596461534500122, -2.292192220687866, 0.4424731433391571, 
349, 3155795118, -20.617212295532227, -88.31495666503906, -30.153045654296875, 9.799407005310059, -0.13099761307239532, 0.21152079105377197, 1.1408451795578003, -2.232562303543091, 0.4286413788795471, 
350, 3155803451, -20.63089370727539, -88.31611633300781, -30.13480567932129, 9.831317901611328, -0.11707672476768494, 0.22741764783859253, 1.134595274925232, -2.3628363609313965, 0.41191530227661133, 
351, 3155811784, -20.6353816986084, -88.31634521484375, -30.126346588134766, 9.828374862670898, -0.12783636152744293, 0.20591992139816284, 1.0759388208389282, -2.278668165206909, 0.49203670024871826, 
352, 3155820117, -20.658428192138672, -88.31809997558594, -30.098209381103516, 9.8187894821167, -0.10763636231422424, 0.1991344839334488, 1.1175618171691895, -2.337068557739258, 0.4536409378051758, 
353, 3155828450, -20.666629791259766, -88.31914520263672, -30.085853576660156, 9.827937126159668, -0.1199590340256691, 0.2484879344701767, 1.0853649377822876, -2.36639666557312, 0.4728003740310669, 
354, 3155836783, -20.69002342224121, -88.31937408447266, -30.05812644958496, 9.81364917755127, -0.13570214807987213, 0.21852043271064758, 1.098069429397583, -2.256742238998413, 0.48678576946258545, 
355, 3155845116, -20.717405319213867, -88.3197250366211, -30.025785446166992, 9.820266723632812, -0.13355912268161774, 0.24605858325958252, 1.158288598060608, -2.2942159175872803, 0.573361873626709, 
356, 3155853449, -20.782180786132812, -88.32054138183594, -29.955867767333984, 9.796344757080078, -0.12415798753499985, 0.22433507442474365, 1.1965305805206299, -2.3838913440704346, 0.5978490114212036, 
357, 3155861782, -20.769182205200195, -88.32089233398438, -29.964370727539062, 9.787264823913574, -0.11770874261856079, 0.22652040421962738, 1.1259121894836426, -2.2730586528778076, 0.42997339367866516, 
358, 3155870115, -20.782604217529297, -88.32158660888672, -29.946056365966797, 9.823240280151367, -0.12209092825651169, 0.21505768597126007, 1.1317265033721924, -2.2291812896728516, 0.4594809114933014, 
359, 3155878448, -20.79851722717285, -88.32135772705078, -29.92584228515625, 9.796265602111816, -0.1218462884426117, 0.20563027262687683, 1.1344929933547974, -2.275312662124634, 0.5371177196502686, 
360, 3155886781, -20.820938110351562, -88.3222885131836, -29.89917755126953, 9.83112621307373, -0.12214821577072144, 0.22718939185142517, 1.0525529384613037, -2.295675754547119, 0.4686508774757385, 
361, 3155895114, -20.841983795166016, -88.32275390625, -29.87325668334961, 9.808935165405273, -0.11718820780515671, 0.21644777059555054, 1.1207637786865234, -2.2728281021118164, 0.5571224093437195, 
362, 3155903447, -20.893415451049805, -88.32181549072266, -29.816635131835938, 9.829763412475586, -0.1245790645480156, 0.22489780187606812, 1.2201980352401733, -2.1622254848480225, 0.6304815411567688, 
363, 3155911780, -20.87941551208496, -88.32205963134766, -29.82569122314453, 9.794276237487793, -0.11842767894268036, 0.23496073484420776, 1.1559064388275146, -2.250518321990967, 0.4363769590854645, 
364, 3155920113, -20.898303985595703, -88.32135772705078, -29.801639556884766, 9.797529220581055, -0.14913319051265717, 0.1895243525505066, 1.22452712059021, -2.1764416694641113, 0.5042546987533569, 
365, 3155928446, -20.896318435668945, -88.32147216796875, -29.799989700317383, 9.805222511291504, -0.1341376155614853, 0.21299922466278076, 1.0371075868606567, -2.265681266784668, 0.46939367055892944, 
366, 3155936779, -20.94748306274414, -88.32181549072266, -29.745296478271484, 9.809683799743652, -0.14058668911457062, 0.20761340856552124, 0.9631336331367493, -2.2644777297973633, 0.58570796251297, 
367, 3155945112, -20.959489822387695, -88.32123565673828, -29.728857040405273, 9.781830787658691, -0.12677216529846191, 0.25135302543640137, 1.1041401624679565, -2.1633782386779785, 0.5644993185997009, 
368, 3155953445, -20.984710693359375, -88.32112121582031, -29.698963165283203, 9.821627616882324, -0.13260722160339355, 0.24185775220394135, 1.101706624031067, -2.178823709487915, 0.5270513296127319, 
369, 3155961778, -20.994848251342773, -88.3206558227539, -29.6842041015625, 9.791950225830078, -0.10946152359247208, 0.2498294562101364, 1.1231715679168701, -2.2023377418518066, 0.5444689989089966, 
370, 3155970111, -21.03191375732422, -88.32054138183594, -29.642471313476562, 9.80386734008789, -0.12266089767217636, 0.2002386897802353, 1.1539853811264038, -2.250748634338379, 0.54239422082901, 
371, 3155978444, -21.059019088745117, -88.32089233398438, -29.609601974487305, 9.808952331542969, -0.12916579842567444, 0.20247448980808258, 1.2779326438903809, -2.2903480529785156, 0.5783054232597351, 
372, 3155986777, -21.091861724853516, -88.3207778930664, -29.57115364074707, 9.813700675964355, -0.13148562610149384, 0.24512849748134613, 1.2215301990509033, -2.2087411880493164, 0.5437517762184143, 
373, 3155995110, -21.10023307800293, -88.3201904296875, -29.55830955505371, 9.846960067749023, -0.13076360523700714, 0.22487226128578186, 1.1166142225265503, -2.1845357418060303, 0.5442897081375122, 
374, 3156003443, -21.134279251098633, -88.31983947753906, -29.519527435302734, 9.788579940795898, -0.13654173910617828, 0.1942170411348343, 1.1663570404052734, -2.223904848098755, 0.542829692363739, 
375, 3156011776, -21.14799690246582, -88.31995391845703, -29.499679565429688, 9.826594352722168, -0.13049817085266113, 0.2191329151391983, 1.3025223016738892, -2.2479822635650635, 0.5447251200675964, 
376, 3156020109, -21.17897605895996, -88.31902313232422, -29.464153289794922, 9.808985710144043, -0.1304401308298111, 0.2365177869796753, 1.1448410749435425, -2.161867141723633, 0.5544841289520264, 
377, 3156028442, -21.18379783630371, -88.31890869140625, -29.45449447631836, 9.793657302856445, -0.11985278129577637, 0.22814646363258362, 1.1674327850341797, -2.238581657409668, 0.5116315484046936, 
378, 3156036775, -21.20011329650879, -88.31867980957031, -29.43316078186035, 9.813671112060547, -0.14575915038585663, 0.22226640582084656, 1.1292164325714111, -2.146754741668701, 0.5035630464553833, 
379, 3156045108, -21.226011276245117, -88.31844329833984, -29.403018951416016, 9.801804542541504, -0.12132499366998672, 0.18422149121761322, 1.0900264978408813, -2.2366602420806885, 0.5883461236953735, 
380, 3156053441, -21.27623748779297, -88.31925964355469, -29.34827423095703, 9.82605266571045, -0.11455409228801727, 0.2253669798374176, 1.0976852178573608, -2.332995891571045, 0.5590691566467285, 
381, 3156061774, -21.268085479736328, -88.31809997558594, -29.352027893066406, 9.796167373657227, -0.13745133578777313, 0.21695441007614136, 1.1054208278656006, -2.0891737937927246, 0.5181375741958618, 
382, 3156070107, -21.308612823486328, -88.31739807128906, -29.30711555480957, 9.811103820800781, -0.12495752424001694, 0.23686155676841736, 1.1421514749526978, -2.2001090049743652, 0.5763843059539795, 
383, 3156078440, -21.328155517578125, -88.31669616699219, -29.282346725463867, 9.797188758850098, -0.14944088459014893, 0.2251701056957245, 1.2108234167099, -2.2041051387786865, 0.5805850625038147, 
384, 3156086773, -21.380176544189453, -88.31692504882812, -29.225204467773438, 9.79725170135498, -0.13377074897289276, 0.2046668529510498, 1.1400513648986816, -2.2098169326782227, 0.6173927783966064, 
385, 3156095106, -21.399744033813477, -88.3172836303711, -29.200944900512695, 9.811917304992676, -0.11822674423456192, 0.2216705083847046, 1.1404097080230713, -2.308150053024292, 0.5385265350341797, 
386, 3156103439, -21.453824996948242, -88.31751251220703, -29.142316818237305, 9.819456100463867, -0.11899951845407486, 0.22262348234653473, 1.1076490879058838, -2.274953842163086, 0.5979259014129639, 
387, 3156111772, -21.457773208618164, -88.31692504882812, -29.133956909179688, 9.777750968933105, -0.1246417686343193, 0.23601579666137695, 1.1096726655960083, -2.203669309616089, 0.5203403830528259, 
388, 3156120105, -21.503074645996094, -88.31704711914062, -29.083141326904297, 9.801308631896973, -0.11164852231740952, 0.2224092334508896, 1.2232205867767334, -2.2488274574279785, 0.5794580578804016, 
389, 3156128438, -21.521366119384766, -88.31739807128906, -29.06047821044922, 9.812155723571777, -0.11599841713905334, 0.23023924231529236, 1.1078541278839111, -2.2831761837005615, 0.5423686504364014, 
390, 3156136771, -21.555326461791992, -88.31879425048828, -29.02195167541504, 9.794358253479004, -0.11794328689575195, 0.22374378144741058, 1.1318033933639526, -2.3920109272003174, 0.4768986403942108, 
391, 3156145104, -21.559101104736328, -88.31902313232422, -29.01371192932129, 9.827760696411133, -0.12452023476362228, 0.2564913332462311, 1.051887035369873, -2.2185769081115723, 0.513475775718689, 
392, 3156153437, -21.621232986450195, -88.32054138183594, -28.946949005126953, 9.812994003295898, -0.12275942414999008, 0.20353521406650543, 1.1658447980880737, -2.468059539794922, 0.5528960824012756, 
393, 3156161770, -21.637380599975586, -88.32181549072266, -28.926517486572266, 9.81044864654541, -0.14171387255191803, 0.19661463797092438, 1.0520662069320679, -2.3559458255767822, 0.5039728283882141, 
394, 3156170103, -21.66510772705078, -88.32181549072266, -28.894479751586914, 9.809557914733887, -0.14400649070739746, 0.23706677556037903, 1.1125415563583374, -2.261147975921631, 0.5052536725997925, 
395, 3156178436, -21.660924911499023, -88.3222885131836, -28.89457893371582, 9.802139282226562, -0.11347918212413788, 0.20418401062488556, 1.0619791746139526, -2.2724952697753906, 0.46114593744277954, 
396, 3156186769, -21.704254150390625, -88.32240295410156, -28.846403121948242, 9.81705379486084, -0.12185768783092499, 0.22953009605407715, 1.145686388015747, -2.2534637451171875, 0.5668814778327942, 
397, 3156195102, -21.729812622070312, -88.3232192993164, -28.816516876220703, 9.81789779663086, -0.12226688116788864, 0.21777859330177307, 1.0895142555236816, -2.3527698516845703, 0.5413183569908142, 
398, 3156203435, -21.77065086364746, -88.32392120361328, -28.771554946899414, 9.81917667388916, -0.12012184411287308, 0.21387535333633423, 1.0801650285720825, -2.340705633163452, 0.522978663444519, 
399, 3156211768, -21.819631576538086, -88.32532501220703, -28.718029022216797, 9.79426097869873, -0.11106038093566895, 0.20088288187980652, 1.0925111770629883, -2.439807176589966, 0.5935971140861511, 
400, 3156220101, -21.897192001342773, -88.32532501220703, -28.636598587036133, 9.804548263549805, -0.11722031235694885, 0.21026219427585602, 1.0705598592758179, -2.335864782333374, 0.6607832312583923, 
401, 3156228434, -21.960254669189453, -88.32532501220703, -28.57000160217285, 9.818917274475098, -0.11873062700033188, 0.2109701931476593, 1.059289574623108, -2.334404468536377, 0.6878318786621094, 
402, 3156236767, -21.979211807250977, -88.3260269165039, -28.54686164855957, 9.80828857421875, -0.11213292181491852, 0.24024823307991028, 1.0400021076202393, -2.2819721698760986, 0.46158134937286377, 
403, 3156245100, -21.98569679260254, -88.32555389404297, -28.536317825317383, 9.79592227935791, -0.14403370022773743, 0.20568598806858063, 1.0783464908599854, -2.2271065711975098, 0.5188035368919373, 
404, 3156253433, -22.007394790649414, -88.32579803466797, -28.509672164916992, 9.812125205993652, -0.1268867701292038, 0.21525125205516815, 1.124913215637207, -2.2055904865264893, 0.5056890249252319, 
405, 3156261766, -21.9932804107666, -88.32532501220703, -28.519908905029297, 9.791752815246582, -0.1408056914806366, 0.20778365433216095, 1.047993779182434, -2.139301061630249, 0.4769755005836487, 
406, 3156270099, -22.005489349365234, -88.32345581054688, -28.504154205322266, 9.830999374389648, -0.14402957260608673, 0.24022750556468964, 1.0042189359664917, -2.017428398132324, 0.5391668677330017, 
407, 3156278432, -22.013671875, -88.32275390625, -28.491920471191406, 9.799905776977539, -0.1255134642124176, 0.20918740332126617, 1.1060097217559814, -2.186072826385498, 0.5434956550598145, 
408, 3156286765, -22.029720306396484, -88.32275390625, -28.47049903869629, 9.778924942016602, -0.12000897526741028, 0.2397947758436203, 1.1515519618988037, -2.1573846340179443, 0.5045364499092102, 
409, 3156295098, -22.005598068237305, -88.32181549072266, -28.48967933654785, 9.802943229675293, -0.14917373657226562, 0.23223164677619934, 1.1393595933914185, -2.0624325275421143, 0.4706999957561493, 
410, 3156303431, -21.967676162719727, -88.32089233398438, -28.5231876373291, 9.799175262451172, -0.12638212740421295, 0.2153056114912033, 1.119303584098816, -2.0695276260375977, 0.3349701464176178, 
411, 3156311764, -21.92031478881836, -88.32007598876953, -28.566884994506836, 9.825435638427734, -0.11880133301019669, 0.22629055380821228, 1.0583674907684326, -2.0980875492095947, 0.36619389057159424, 
412, 3156320097, -21.94582748413086, -88.31948852539062, -28.536483764648438, 9.82523250579834, -0.11684887856245041, 0.22387665510177612, 1.1304715871810913, -2.151749610900879, 0.5444689989089966, 
413, 3156328430, -21.92098045349121, -88.31937408447266, -28.557010650634766, 9.812240600585938, -0.10722582042217255, 0.21537481248378754, 1.1413575410842896, -2.2323060035705566, 0.39946675300598145, 
414, 3156336763, -21.9338321685791, -88.31925964355469, -28.539644241333008, 9.797589302062988, -0.11093857139348984, 0.20647032558918, 1.0780646800994873, -2.13753342628479, 0.4984658360481262, 
415, 3156345096, -21.973466873168945, -88.3196029663086, -28.495126724243164, 9.792098999023438, -0.12400998175144196, 0.2465435415506363, 1.1457374095916748, -2.3186004161834717, 0.6097341179847717, 
416, 3156353429, -22.045061111450195, -88.31902313232422, -28.419343948364258, 9.811968803405762, -0.11257723718881607, 0.23006002604961395, 1.056933045387268, -2.2124295234680176, 0.6922887563705444, 
417, 3156361762, -22.092592239379883, -88.31948852539062, -28.36701202392578, 9.817218780517578, -0.0979762151837349, 0.23935379087924957, 1.169379472732544, -2.3622984886169434, 0.6225924491882324, 
418, 3156370095, -22.154376983642578, -88.31914520263672, -28.300304412841797, 9.801862716674805, -0.10226301103830338, 0.23887519538402557, 1.1859005689620972, -2.269216299057007, 0.6343492865562439, 
419, 3156378428, -22.250083923339844, -88.31809997558594, -28.199630737304688, 9.823079109191895, -0.10442943871021271, 0.2103891223669052, 1.17457914352417, -2.2530791759490967, 0.8506358861923218, 
420, 3156386761, -22.33594512939453, -88.31716918945312, -28.1085262298584, 9.81926155090332, -0.11929737776517868, 0.22946231067180634, 1.1769357919692993, -2.186123847961426, 0.7627279162406921, 
421, 3156395094, -22.40312385559082, -88.31634521484375, -28.035385131835938, 9.837841033935547, -0.12529245018959045, 0.2058473825454712, 1.2958369255065918, -2.2375571727752686, 0.7530713081359863, 
422, 3156403427, -22.473798751831055, -88.31634521484375, -27.95942497253418, 9.780853271484375, -0.13371051847934723, 0.24858468770980835, 1.2123857736587524, -2.3083293437957764, 0.6541491746902466, 
423, 3156411760, -22.499868392944336, -88.31600189208984, -27.92812156677246, 9.79460334777832, -0.12961511313915253, 0.18898090720176697, 1.2118991613388062, -2.237710952758789, 0.5933921933174133, 
424, 3156420093, -22.566104888916016, -88.31646728515625, -27.857147216796875, 9.791568756103516, -0.13614551723003387, 0.2374819815158844, 1.132853627204895, -2.32257080078125, 0.6297644972801208, 
425, 3156428426, -22.622926712036133, -88.31542205810547, -27.795913696289062, 9.791248321533203, -0.13402585685253143, 0.20251327753067017, 1.1225311756134033, -2.2134029865264893, 0.7184152603149414, 
426, 3156436759, -22.673315048217773, -88.31588745117188, -27.7403507232666, 9.803476333618164, -0.14319923520088196, 0.2298744171857834, 1.1490674018859863, -2.2665014266967773, 0.5949546694755554, 
427, 3156445092, -22.665489196777344, -88.31495666503906, -27.744213104248047, 9.84012508392334, -0.13506653904914856, 0.1973329335451126, 1.10114324092865, -2.149700403213501, 0.4956226646900177, 
428, 3156453425, -22.644760131835938, -88.31414031982422, -27.75985336303711, 9.81920337677002, -0.13651986420154572, 0.1870165318250656, 1.1218905448913574, -2.0213217735290527, 0.4249785542488098, 
429, 3156461758, -22.62343978881836, -88.31298065185547, -27.77711296081543, 9.805177688598633, -0.12227198481559753, 0.23329193890094757, 1.0585466623306274, -2.053800582885742, 0.4837888181209564, 
430, 3156470091, -22.67725944519043, -88.31147766113281, -27.71858787536621, 9.835759162902832, -0.1425037682056427, 0.23816996812820435, 1.1521154642105103, -2.133819341659546, 0.6635751128196716, 
431, 3156478424, -22.68722915649414, -88.3100814819336, -27.704862594604492, 9.801559448242188, -0.13224470615386963, 0.21309080719947815, 1.033828854560852, -2.110740900039673, 0.5798422694206238, 
432, 3156486757, -22.716358184814453, -88.308349609375, -27.67104148864746, 9.797698020935059, -0.09153538942337036, 0.256276935338974, 1.129370093345642, -2.0366392135620117, 0.6087607145309448, 
433, 3156495090, -22.76710319519043, -88.30741882324219, -27.61626434326172, 9.801443099975586, -0.116378553211689, 0.21258196234703064, 1.077911138534546, -2.2047197818756104, 0.6979751586914062, 
434, 3156503423, -22.844663619995117, -88.30673217773438, -27.53403091430664, 9.803972244262695, -0.12713199853897095, 0.20661398768424988, 1.1366446018218994, -2.240118980407715, 0.7101931571960449, 
435, 3156511756, -22.8621883392334, -88.30626678466797, -27.51247215270996, 9.808061599731445, -0.14511427283287048, 0.21959072351455688, 1.081753134727478, -2.2141458988189697, 0.5661385655403137, 
436, 3156520089, -22.91952896118164, -88.3064956665039, -27.45045280456543, 9.803457260131836, -0.1288159340620041, 0.22174955904483795, 1.0733004808425903, -2.2378389835357666, 0.6329405903816223, 
437, 3156528422, -22.94171714782715, -88.30603790283203, -27.423809051513672, 9.791902542114258, -0.13371948897838593, 0.220319002866745, 1.1470695734024048, -2.2683968544006348, 0.5647298693656921, 
438, 3156536755, -22.98627471923828, -88.30858612060547, -27.375268936157227, 9.807992935180664, -0.11346545070409775, 0.22683709859848022, 0.9783997535705566, -2.456200361251831, 0.4853513240814209, 
439, 3156545088, -22.983461380004883, -88.30962371826172, -27.373693466186523, 9.814565658569336, -0.12628191709518433, 0.2285836786031723, 1.1177667379379272, -2.370392322540283, 0.4248761236667633, 
440, 3156553421, -23.012311935424805, -88.31112670898438, -27.34120750427246, 9.80901050567627, -0.12251189351081848, 0.23470008373260498, 1.0252481698989868, -2.409428358078003, 0.44795453548431396, 
441, 3156561754, -23.016576766967773, -88.31159210205078, -27.332826614379883, 9.82948112487793, -0.13907858729362488, 0.23547647893428802, 1.1007333993911743, -2.3212132453918457, 0.4724161624908447, 
442, 3156570087, -23.075504302978516, -88.3132095336914, -27.268980026245117, 9.813247680664062, -0.11584030836820602, 0.27444329857826233, 1.1232739686965942, -2.4032812118530273, 0.568162202835083, 
443, 3156578420, -23.104101181030273, -88.31379699707031, -27.23616600036621, 9.789167404174805, -0.13283328711986542, 0.2451537847518921, 1.1006308794021606, -2.370187759399414, 0.5446227192878723, 
444, 3156586753, -23.164701461791992, -88.31379699707031, -27.17106056213379, 9.828343391418457, -0.11163473129272461, 0.2360544502735138, 1.1269880533218384, -2.2996206283569336, 0.6188783645629883, 
445, 3156595086, -23.21220588684082, -88.3133316040039, -27.119457244873047, 9.791524887084961, -0.14178389310836792, 0.23611603677272797, 1.0894629955291748, -2.261122226715088, 0.663395881652832, 
446, 3156603419, -23.290184020996094, -88.31507110595703, -27.037166595458984, 9.793890953063965, -0.10700258612632751, 0.21232232451438904, 1.0773732662200928, -2.4811997413635254, 0.6045087575912476, 
447, 3156611752, -23.32513999938965, -88.31449127197266, -26.99773406982422, 9.803458213806152, -0.1373268961906433, 0.19365742802619934, 1.1012201309204102, -2.199622631072998, 0.6422898173332214, 
448, 3156620085, -23.43539047241211, -88.31553649902344, -26.883010864257812, 9.82471752166748, -0.122075155377388, 0.2154283970594406, 1.0980437994003296, -2.474642753601074, 0.7319652438163757, 
449, 3156628418, -23.46700668334961, -88.31460571289062, -26.847137451171875, 9.802139282226562, -0.12132636457681656, 0.21918551623821259, 1.0932539701461792, -2.1674764156341553, 0.6416493654251099, 
450, 3156636751, -23.51289939880371, -88.31367492675781, -26.797191619873047, 9.804778099060059, -0.11430995166301727, 0.2474522888660431, 1.0482240915298462, -2.1638903617858887, 0.6203383207321167, 
451, 3156645084, -23.552629470825195, -88.31344604492188, -26.752695083618164, 9.81931209564209, -0.13600270450115204, 0.21356472373008728, 1.1536524295806885, -2.2517731189727783, 0.6400613784790039, 
452, 3156653417, -23.60175132751465, -88.3132095336914, -26.699495315551758, 9.811704635620117, -0.13309021294116974, 0.22944770753383636, 1.0285266637802124, -2.219499111175537, 0.6073518991470337, 
453, 3156661750, -23.641277313232422, -88.31344604492188, -26.656116485595703, 9.803563117980957, -0.12681657075881958, 0.22672560811042786, 1.0355706214904785, -2.3259263038635254, 0.6033304929733276, 
454, 3156670083, -23.677804946899414, -88.31228637695312, -26.615171432495117, 9.807929992675781, -0.12290512025356293, 0.2434249371290207, 1.1042169332504272, -2.1030569076538086, 0.6131407618522644, 
455, 3156678416, -23.693395614624023, -88.31228637695312, -26.595956802368164, 9.805638313293457, -0.11766161769628525, 0.22008654475212097, 1.0228917598724365, -2.2632226943969727, 0.5357601642608643, 
456, 3156686749, -23.775108337402344, -88.31309509277344, -26.510692596435547, 9.804859161376953, -0.12908466160297394, 0.18719233572483063, 0.9977129697799683, -2.4004383087158203, 0.6537137031555176, 
457, 3156695082, -23.804229736328125, -88.31182861328125, -26.478233337402344, 9.812352180480957, -0.12740415334701538, 0.2547788619995117, 0.9752236008644104, -2.1232409477233887, 0.6496410369873047, 
458, 3156703415, -23.903278350830078, -88.31124877929688, -26.374732971191406, 9.825761795043945, -0.13028818368911743, 0.22537089884281158, 1.0554217100143433, -2.2454206943511963, 0.7934393882751465, 
459, 3156711748, -23.96291732788086, -88.3106689453125, -26.311283111572266, 9.811569213867188, -0.1206837147474289, 0.2437603622674942, 1.0127739906311035, -2.2297191619873047, 0.7225135564804077, 
460, 3156720081, -24.058685302734375, -88.30962371826172, -26.211336135864258, 9.808111190795898, -0.12493908405303955, 0.2348383069038391, 1.1151286363601685, -2.2644522190093994, 0.7710781693458557, 
461, 3156728414, -24.106964111328125, -88.3088150024414, -26.15885353088379, 9.81177806854248, -0.15092076361179352, 0.20994430780410767, 1.0515795946121216, -2.164761543273926, 0.7103211283683777, 
462, 3156736747, -24.155345916748047, -88.308349609375, -26.106563568115234, 9.816373825073242, -0.13489565253257751, 0.21825671195983887, 1.0809590816497803, -2.258484125137329, 0.5897293090820312, 
463, 3156745080, -24.184173583984375, -88.30927276611328, -26.072769165039062, 9.835558891296387, -0.14330685138702393, 0.23896074295043945, 1.1874120235443115, -2.399721145629883, 0.5310471057891846, 
464, 3156753413, -24.18807029724121, -88.31112670898438, -26.063026428222656, 9.831547737121582, -0.13189584016799927, 0.2399057298898697, 1.2499361038208008, -2.3694448471069336, 0.3765932619571686, 
465, 3156761746, -24.14805793762207, -88.31367492675781, -26.09660530090332, 9.825736999511719, -0.1286713182926178, 0.2202206552028656, 1.3260619640350342, -2.44756817817688, 0.24944424629211426, 
466, 3156770079, -24.166288375854492, -88.31507110595703, -26.072532653808594, 9.845233917236328, -0.12172311544418335, 0.2076943963766098, 1.2615394592285156, -2.3778975009918213, 0.4275656044483185, 
467, 3156778412, -24.152414321899414, -88.31529998779297, -26.07991600036621, 9.827014923095703, -0.11071054637432098, 0.21123021841049194, 1.363893985748291, -2.2408101558685303, 0.4425499737262726, 
468, 3156786745, -24.172252655029297, -88.3148422241211, -26.05379295349121, 9.784957885742188, -0.08613009005784988, 0.21486443281173706, 1.3402262926101685, -2.1864824295043945, 0.5232603549957275, 
469, 3156795078, -24.151382446289062, -88.31460571289062, -26.06877326965332, 9.787342071533203, -0.1092451959848404, 0.22069184482097626, 1.3146121501922607, -2.20625638961792, 0.42917928099632263, 
470, 3156803411, -24.15924072265625, -88.31391143798828, -26.055334091186523, 9.785141944885254, -0.11958982795476913, 0.2492113709449768, 1.2356947660446167, -2.118502378463745, 0.5040754079818726, 
471, 3156811744, -24.183225631713867, -88.3132095336914, -26.025537490844727, 9.816044807434082, -0.08789774030447006, 0.2131991982460022, 1.2647669315338135, -2.2035670280456543, 0.60438072681427, 
472, 3156820077, -24.213376998901367, -88.31204986572266, -25.99003791809082, 9.797731399536133, -0.12383295595645905, 0.2121577262878418, 1.202268123626709, -2.102006673812866, 0.595518171787262, 
473, 3156828410, -24.255023956298828, -88.31089782714844, -25.94306755065918, 9.792951583862305, -0.12057816982269287, 0.21330676972866058, 1.1938409805297852, -2.1360480785369873, 0.6999729871749878, 
474, 3156836743, -24.30845069885254, -88.30858612060547, -25.8853702545166, 9.818655967712402, -0.14231830835342407, 0.22938132286071777, 1.1235811710357666, -2.0687851905822754, 0.699614405632019, 
475, 3156845076, -24.347883224487305, -88.30696105957031, -25.840972900390625, 9.805581092834473, -0.13002677261829376, 0.2345939576625824, 1.1847480535507202, -2.142989158630371, 0.6894711852073669, 
476, 3156853409, -24.415651321411133, -88.30545806884766, -25.76773452758789, 9.819411277770996, -0.11288468539714813, 0.21806980669498444, 1.2082107067108154, -2.0874834060668945, 0.750279426574707, 
477, 3156861742, -24.45159339904785, -88.30303955078125, -25.727188110351562, 9.797538757324219, -0.12790735065937042, 0.21562276780605316, 1.1370799541473389, -2.0581040382385254, 0.713779091835022, 
478, 3156870075, -24.50286865234375, -88.30142211914062, -25.670970916748047, 9.823366165161133, -0.1531185805797577, 0.2215868979692459, 1.1430222988128662, -2.07344651222229, 0.6918532252311707, 
479, 3156878408, -24.51754379272461, -88.30015563964844, -25.65144920349121, 9.795425415039062, -0.13210417330265045, 0.23738349974155426, 1.188257098197937, -2.1453969478607178, 0.5933153629302979, 
480, 3156886741, -24.531702041625977, -88.2999267578125, -25.632736206054688, 9.822077751159668, -0.13506239652633667, 0.23827995359897614, 1.1035765409469604, -2.1676559448242188, 0.5017957091331482, 
481, 3156895074, -24.48673439025879, -88.29888916015625, -25.674108505249023, 9.795555114746094, -0.13941946625709534, 0.20435023307800293, 1.0100845098495483, -2.059845447540283, 0.392960786819458, 
482, 3156903407, -24.489728927612305, -88.2995834350586, -25.666610717773438, 9.804524421691895, -0.1420326828956604, 0.1879868358373642, 1.1217882633209229, -2.2635812759399414, 0.4161160886287689, 
483, 3156911740, -24.48308563232422, -88.29877471923828, -25.66929054260254, 9.800826072692871, -0.11311402171850204, 0.2102760523557663, 1.0559853315353394, -2.149956703186035, 0.5016420483589172, 
484, 3156920073, -24.525741577148438, -88.29888916015625, -25.621967315673828, 9.811373710632324, -0.13308541476726532, 0.22510847449302673, 1.1223773956298828, -2.2463173866271973, 0.5804826021194458, 
485, 3156928406, -24.53537940979004, -88.2983169555664, -25.607263565063477, 9.775971412658691, -0.1250675916671753, 0.2516026496887207, 1.1607218980789185, -2.1951911449432373, 0.5497455596923828, 
486, 3156936739, -24.59438705444336, -88.29877471923828, -25.543973922729492, 9.824195861816406, -0.11611997336149216, 0.19460850954055786, 1.0706877708435059, -2.3007986545562744, 0.6169060468673706, 
487, 3156945072, -24.605222702026367, -88.29853820800781, -25.528711318969727, 9.795071601867676, -0.12223614752292633, 0.20659327507019043, 1.0925624370574951, -2.209151029586792, 0.547389030456543, 
488, 3156953405, -24.614858627319336, -88.29808807373047, -25.515117645263672, 9.818717956542969, -0.1348959505558014, 0.23158584535121918, 1.076553463935852, -2.184638023376465, 0.47554105520248413, 
489, 3156961738, -24.612035751342773, -88.29705047607422, -25.514728546142578, 9.803240776062012, -0.15008533000946045, 0.21269561350345612, 1.009060025215149, -2.170192003250122, 0.5079943537712097, 
490, 3156970071, -24.633827209472656, -88.29658508300781, -25.48927116394043, 9.825016021728516, -0.14541038870811462, 0.22787831723690033, 0.9768116474151611, -2.1310274600982666, 0.548080563545227, 
491, 3156978404, -24.597251892089844, -88.2955551147461, -25.522077560424805, 9.802168846130371, -0.1315271556377411, 0.2045731246471405, 0.9839324355125427, -2.0228073596954346, 0.4425243139266968, 
492, 3156986737, -24.601171493530273, -88.29452514648438, -25.51465606689453, 9.810078620910645, -0.1434594839811325, 0.20275916159152985, 1.018281102180481, -2.1172471046447754, 0.4847109317779541, 
493, 3156995070, -24.573766708374023, -88.29429626464844, -25.537750244140625, 9.819814682006836, -0.12080885469913483, 0.25370219349861145, 1.0582906007766724, -2.119142532348633, 0.435890257358551, 
494, 3157003403, -24.566986083984375, -88.29452514648438, -25.540468215942383, 9.790257453918457, -0.1405683010816574, 0.25520309805870056, 1.1024751663208008, -2.2654507160186768, 0.3768494427204132, 
495, 3157011736, -24.551002502441406, -88.29612731933594, -25.552473068237305, 9.772103309631348, -0.10068698972463608, 0.24560873210430145, 1.0871065855026245, -2.3873233795166016, 0.35909876227378845, 
496, 3157020069, -24.63222312927246, -88.2983169555664, -25.467140197753906, 9.76492691040039, -0.12841835618019104, 0.2123257964849472, 1.0646172761917114, -2.57507586479187, 0.5796629786491394, 
497, 3157028402, -24.598861694335938, -88.30245971679688, -25.497783660888672, 9.798396110534668, -0.14825673401355743, 0.23828594386577606, 0.897970974445343, -2.608860969543457, 0.18481950461864471, 
498, 3157036735, -24.61846160888672, -88.30696105957031, -25.475751876831055, 9.788141250610352, -0.12178502976894379, 0.2502749264240265, 0.8653385639190674, -2.729837417602539, 0.2599460780620575, 
499, 3157045068, -24.604015350341797, -88.3128662109375, -25.487335205078125, 9.826876640319824, -0.1445244699716568, 0.23440024256706238, 0.9040928483009338, -2.846458673477173, 0.14977924525737762, 
500, 3157053401, -24.653711318969727, -88.31739807128906, -25.433584213256836, 9.813095092773438, -0.11089063435792923, 0.22492466866970062, 1.0871065855026245, -2.7900052070617676, 0.3565629720687866, 
501, 3157061734, -24.69538688659668, -88.32275390625, -25.387676239013672, 9.820328712463379, -0.11130448430776596, 0.20887605845928192, 1.0655138492584229, -2.846714973449707, 0.37157291173934937, 
502, 3157070067, -24.806718826293945, -88.32754516601562, -25.272741317749023, 9.804911613464355, -0.11467643827199936, 0.2050912082195282, 1.0081123113632202, -2.880858898162842, 0.5461083054542542, 
503, 3157078400, -24.95081901550293, -88.33517456054688, -25.12396240234375, 9.826951026916504, -0.12301566451787949, 0.2343958467245102, 1.0979926586151123, -3.264431953430176, 0.5688793659210205, 
504, 3157086733, -25.12508773803711, -88.34235382080078, -24.944368362426758, 9.794055938720703, -0.12248934060335159, 0.23580162227153778, 1.2098755836486816, -3.2263693809509277, 0.6254357099533081, 
505, 3157095066, -25.266464233398438, -88.34957122802734, -24.797433853149414, 9.80553150177002, -0.12908118963241577, 0.2168816775083542, 1.2490142583847046, -3.234104871749878, 0.5673169493675232, 
506, 3157103399, -25.446252822875977, -88.3580093383789, -24.61121368408203, 9.789471626281738, -0.1443244069814682, 0.1806795597076416, 1.2954270839691162, -3.351213216781616, 0.5813791751861572, 
507, 3157111732, -25.588699340820312, -88.36410522460938, -24.462594985961914, 9.871691703796387, -0.11578160524368286, 0.20046570897102356, 1.3221170902252197, -3.0990917682647705, 0.626946747303009, 
508, 3157120065, -25.69242286682129, -88.368896484375, -24.35214614868164, 9.848626136779785, -0.12459936738014221, 0.20001693069934845, 1.3803125619888306, -2.88362455368042, 0.5071746110916138, 
509, 3157128398, -25.7585391998291, -88.37237548828125, -24.279417037963867, 9.834192276000977, -0.11565806716680527, 0.17024168372154236, 1.3882020711898804, -2.724099636077881, 0.5147053003311157, 
510, 3157136731, -25.78221321105957, -88.37333679199219, -24.249711990356445, 9.82939338684082, -0.11527563631534576, 0.18276597559452057, 1.2862827777862549, -2.3324320316314697, 0.46611499786376953, 
511, 3157145064, -25.775266647338867, -88.37141418457031, -24.2503662109375, 9.863962173461914, -0.1014937162399292, 0.17371678352355957, 1.3271374702453613, -2.024702548980713, 0.5741302371025085, 
512, 3157153397, -25.78730010986328, -88.36865234375, -24.232030868530273, 9.813944816589355, -0.10166797041893005, 0.20340324938297272, 1.3324908018112183, -1.91338312625885, 0.6250001192092896, 
513, 3157161730, -25.804222106933594, -88.36421966552734, -24.2093563079834, 9.812209129333496, -0.1248190775513649, 0.1981920748949051, 1.258849859237671, -1.7807015180587769, 0.7816311717033386, 
514, 3157170063, -25.852252960205078, -88.35944366455078, -24.156185150146484, 9.796209335327148, -0.11413757503032684, 0.2423669993877411, 1.2054444551467896, -1.7698925733566284, 0.8275319337844849, 
515, 3157178396, -25.88188934326172, -88.35456085205078, -24.120887756347656, 9.81527328491211, -0.12882545590400696, 0.1659660041332245, 1.2788034677505493, -1.7647182941436768, 0.8395193219184875, 
516, 3157186729, -25.888507843017578, -88.34957122802734, -24.10824966430664, 9.81729793548584, -0.14545001089572906, 0.20152483880519867, 1.2632302045822144, -1.6423078775405884, 0.7361147999763489, 
517, 3157195062, -25.84770965576172, -88.34626007080078, -24.1428165435791, 9.808237075805664, -0.15709438920021057, 0.21182051301002502, 1.305186152458191, -1.7841339111328125, 0.5604010224342346, 
518, 3157203395, -25.825477600097656, -88.34200286865234, -24.159303665161133, 9.825257301330566, -0.13165660202503204, 0.22667072713375092, 1.2850534915924072, -1.7456614971160889, 0.5765123963356018, 
519, 3157211728, -25.75046157836914, -88.33929443359375, -24.228487014770508, 9.815642356872559, -0.17155396938323975, 0.2096567451953888, 1.2772409915924072, -1.8064181804656982, 0.41488659381866455, 
520, 3157220061, -25.679601669311523, -88.33599090576172, -24.29307746887207, 9.821283340454102, -0.15107229351997375, 0.1866820752620697, 1.3339253664016724, -1.741716742515564, 0.39249974489212036, 
521, 3157228394, -25.56206512451172, -88.33341217041016, -24.403623580932617, 9.810934066772461, -0.141773983836174, 0.19172243773937225, 1.3817214965820312, -1.7703533172607422, 0.26898786425590515, 
522, 3157236727, -25.42154884338379, -88.33023834228516, -24.53720474243164, 9.826933860778809, -0.1296660155057907, 0.22583025693893433, 1.4355626106262207, -1.6465343236923218, 0.16855446994304657, 
523, 3157245060, -25.262426376342773, -88.32532501220703, -24.690576553344727, 9.844989776611328, -0.12355246394872665, 0.21813523769378662, 1.3130240440368652, -1.5226894617080688, 0.2187071442604065, 
524, 3157253393, -25.11587905883789, -88.3207778930664, -24.830493927001953, 9.879217147827148, -0.13361504673957825, 0.18154126405715942, 1.3218352794647217, -1.4344482421875, 0.2356637567281723, 
525, 3157261726, -24.877437591552734, -88.31344604492188, -25.06144905090332, 9.914586067199707, -0.13343730568885803, 0.14044137299060822, 1.5128406286239624, -1.099106788635254, 0.10877084732055664, 
526, 3157270059, -24.631580352783203, -88.30291748046875, -25.295766830444336, 9.94692325592041, -0.13750867545604706, 0.17153838276863098, 1.9553263187408447, -0.6724761128425598, 0.21061302721500397, 
527, 3157278392, -24.34503746032715, -88.28707885742188, -25.568235397338867, 9.917357444763184, -0.11001437902450562, 0.1310867965221405, 2.2902841567993164, -0.10570994764566422, 0.37720802426338196, 
528, 3157286725, -24.067899703979492, -88.2643814086914, -25.828205108642578, 9.94554615020752, -0.09658117592334747, 0.15683114528656006, 2.656977653503418, 0.653150200843811, 0.675946831703186, 
529, 3157295058, -23.857467651367188, -88.23664093017578, -26.01963233947754, 9.907567977905273, -0.07381077110767365, 0.16741599142551422, 2.8487000465393066, 1.129984736442566, 1.203984260559082, 
530, 3157303391, -23.775693893432617, -88.20310974121094, -26.08203125, 9.886031150817871, -0.04217701405286789, 0.160077303647995, 2.8729820251464844, 1.6138888597488403, 1.8491555452346802, 
531, 3157311724, -23.66335105895996, -88.16485595703125, -26.174535751342773, 9.948312759399414, -0.1448359489440918, 0.17973016202449799, 2.991447925567627, 2.0931055545806885, 1.9939273595809937, 
532, 3157320057, -23.491132736206055, -88.12686157226562, -26.326263427734375, 9.945029258728027, -0.17751190066337585, 0.26832064986228943, 3.073183059692383, 2.2019150257110596, 1.7001831531524658, 
533, 3157328390, -23.279207229614258, -88.08695220947266, -26.517810821533203, 10.02463436126709, -0.05086740851402283, 0.16063004732131958, 3.057558536529541, 2.439589500427246, 1.6705732345581055, 
534, 3157336723, -23.126014709472656, -88.04015350341797, -26.64919662475586, 10.147852897644043, -0.06895294040441513, 0.1292850375175476, 3.1076598167419434, 3.2617552280426025, 2.182422637939453, 
535, 3157345056, -22.867231369018555, -87.98094177246094, -26.88844108581543, 10.289799690246582, -0.1284908950328827, 0.1011013612151146, 2.905487060546875, 4.7424116134643555, 2.3538074493408203, 
536, 3157353389, -22.537866592407227, -87.9102554321289, -27.20232582092285, 10.797046661376953, 0.16629762947559357, -0.0402655303478241, 2.4919192790985107, 6.126937389373779, 2.4443788528442383, 
537, 3157361722, -22.370145797729492, -87.81000518798828, -27.365201950073242, 10.848161697387695, 0.8903646469116211, -0.020644182339310646, 1.1789849996566772, 9.151878356933594, 4.392367839813232, 
538, 3157370055, -23.638578414916992, -87.66133880615234, -26.098466873168945, 12.970540046691895, 0.6736122965812683, -0.1797654926776886, 0.23333293199539185, 11.919675827026367, 12.933257102966309, 
539, 3157378388, -26.514209747314453, -87.35877227783203, -23.184263229370117, 16.853574752807617, -1.8758420944213867, -1.1353951692581177, 4.838522911071777, 24.247426986694336, 29.625911712646484, 
540, 3157386721, -24.515899658203125, -86.99449920654297, -25.173816680908203, 15.440008163452148, 0.24053247272968292, -0.8805682063102722, 1.910914659500122, 42.34095001220703, 8.658509254455566, 
541, 3157395054, -22.844871520996094, -86.56453704833984, -26.83096694946289, 11.57832145690918, -1.0123344659805298, 0.08300594985485077, 2.531473398208618, 49.521949768066406, 10.979426383972168, 
542, 3157403387, -21.11236572265625, -86.12647247314453, -28.542001724243164, 11.757194519042969, -0.1331310123205185, 0.15002065896987915, 3.5294322967529297, 51.495811462402344, 7.978814601898193, 
543, 3157411720, -19.415475845336914, -85.66786193847656, -30.226110458374023, 11.4661865234375, -0.05930525064468384, 0.23038241267204285, 2.6212270259857178, 54.41465759277344, 5.982463836669922, 
544, 3157420053, -17.94768524169922, -85.19062805175781, -31.681928634643555, 11.547469139099121, -0.13060088455677032, 0.1704823076725006, 2.5387747287750244, 56.55668258666992, 5.5916924476623535, 
545, 3157428386, -16.68002700805664, -84.68241882324219, -32.93717575073242, 11.753355979919434, 0.07538963109254837, 0.2626139223575592, 2.6511459350585938, 59.956058502197266, 5.939204216003418, 
546, 3157436719, -15.662515640258789, -84.14462280273438, -33.94556427001953, 11.207632064819336, 0.05144152790307999, 0.413159042596817, 2.247823715209961, 63.079620361328125, 7.0881876945495605, 
547, 3157445052, -14.802215576171875, -83.59235382080078, -34.79728698730469, 10.811009407043457, -0.15944695472717285, 0.5607224106788635, 2.182020425796509, 64.59009552001953, 7.357395172119141, 
548, 3157453385, -14.067590713500977, -83.02703857421875, -35.5196418762207, 10.688837051391602, -0.2990400493144989, 0.6155693531036377, 2.6422338485717773, 66.04082489013672, 7.563310146331787, 
549, 3157461718, -13.412219047546387, -82.44893646240234, -36.160804748535156, 10.528017044067383, -0.3814495801925659, 0.646686315536499, 2.9016306400299072, 67.46540832519531, 7.505782127380371, 
550, 3157470051, -12.826221466064453, -81.85910034179688, -36.727821350097656, 10.246779441833496, -0.47673842310905457, 0.8337942361831665, 3.4745471477508545, 68.88384246826172, 7.450584888458252, 
551, 3157478384, -12.234607696533203, -81.26508331298828, -37.30056381225586, 9.811366081237793, -0.49135950207710266, 0.9427094459533691, 3.585841655731201, 69.54984283447266, 6.099120616912842, 
552, 3157486717, -11.674123764038086, -80.67417907714844, -37.84065246582031, 9.279045104980469, -0.622600257396698, 1.1491683721542358, 3.8182144165039062, 69.30502319335938, 5.165657043457031, 
553, 3157495050, -11.114956855773926, -80.09235382080078, -38.37700653076172, 9.016426086425781, -0.699144184589386, 1.2842408418655396, 4.2157487869262695, 68.34790802001953, 3.73071551322937, 
554, 3157503383, -10.54876708984375, -79.52275848388672, -38.918174743652344, 8.749804496765137, -0.6534072160720825, 1.4092538356781006, 4.601986885070801, 67.12561798095703, 1.9875319004058838, 
555, 3157511716, -10.010546684265137, -78.96843719482422, -39.42879867553711, 8.344085693359375, -0.5850703716278076, 1.6238328218460083, 4.9651713371276855, 65.26879119873047, 1.0971770286560059, 
556, 3157520049, -9.49557876586914, -78.43733215332031, -39.91621780395508, 7.921980857849121, -0.5066403150558472, 1.8439106941223145, 5.0201640129089355, 62.576725006103516, -0.06859515607357025, 
557, 3157528382, -9.027462005615234, -77.93317413330078, -40.35655975341797, 7.693342208862305, -0.37124380469322205, 1.981196641921997, 5.029383182525635, 59.22624969482422, -0.4632604718208313, 
558, 3157536715, -8.62264347076416, -77.45968627929688, -40.733177185058594, 7.583329200744629, -0.27758824825286865, 2.1108431816101074, 5.001922130584717, 55.45748519897461, -0.3712024688720703, 
559, 3157545048, -8.26998233795166, -77.01475524902344, -41.05805969238281, 7.607449531555176, -0.23591364920139313, 2.193429470062256, 4.874234199523926, 51.85313034057617, -0.20084169507026672, 
560, 3157553381, -7.973254680633545, -76.6010513305664, -41.32887268066406, 7.717142581939697, -0.2963203489780426, 2.2867798805236816, 4.549135208129883, 48.021446228027344, 0.10049764066934586, 
561, 3157561714, -7.711791515350342, -76.21198272705078, -41.56460952758789, 7.878232479095459, -0.34200775623321533, 2.3694658279418945, 4.460816860198975, 44.930301666259766, 0.2617907226085663, 
562, 3157570047, -7.4956769943237305, -75.84781646728516, -41.75192642211914, 7.738418102264404, -0.2599591910839081, 2.4636316299438477, 4.698644161224365, 41.8643684387207, 0.8307861685752869, 
563, 3157578380, -7.306687355041504, -75.51174926757812, -41.91627883911133, 8.08112621307373, -0.20274844765663147, 2.4690732955932617, 4.145195484161377, 38.39482116699219, 0.8348329663276672, 
564, 3157586713, -7.115077972412109, -75.1969985961914, -42.0855827331543, 8.411172866821289, -0.5398697853088379, 2.4942538738250732, 3.9220688343048096, 35.93295669555664, 0.072347491979599, 
565, 3157595046, -6.918609142303467, -74.89451599121094, -42.25587463378906, 8.857437133789062, -0.5373259782791138, 2.446969747543335, 4.417320728302002, 34.44182205200195, -0.3234057128429413, 
566, 3157603379, -6.720757961273193, -74.59803771972656, -42.425453186035156, 9.266101837158203, -0.3648323714733124, 2.4237523078918457, 4.686755657196045, 33.78998565673828, -0.6645874977111816, 
567, 3157611712, -6.534603595733643, -74.2974624633789, -42.580562591552734, 9.714951515197754, -0.27735239267349243, 2.391645908355713, 4.984394550323486, 34.17799377441406, -0.3164641857147217, 
568, 3157620045, -6.353556156158447, -73.98677062988281, -42.73115158081055, 10.363137245178223, -0.28948432207107544, 2.3058173656463623, 4.927633762359619, 35.4205436706543, -0.29530689120292664, 
569, 3157628378, -6.167771816253662, -73.65066528320312, -42.88482666015625, 10.720630645751953, -0.4586371183395386, 2.21217942237854, 5.163747310638428, 38.42807388305664, -0.23162980377674103, 
570, 3157636711, -5.993764877319336, -73.29103088378906, -43.021827697753906, 10.405586242675781, -0.2175394594669342, 2.380932092666626, 5.703338146209717, 41.230873107910156, 0.34695810079574585, 
571, 3157645044, -5.838352203369141, -72.91102600097656, -43.14338302612305, 10.488222122192383, 0.09889079630374908, 2.407515525817871, 5.271122932434082, 43.57081985473633, 0.9604456424713135, 
572, 3157653377, -5.722222805023193, -72.50823974609375, -43.22724914550781, 10.605064392089844, -0.12338660657405853, 2.388969898223877, 4.91249942779541, 46.21297073364258, 2.3194375038146973, 
573, 3157661710, -5.622196197509766, -72.08081817626953, -43.29509353637695, 10.45797061920166, -0.09093303978443146, 2.5129692554473877, 4.828306674957275, 49.06182861328125, 3.0827178955078125, 
574, 3157670043, -5.550763130187988, -71.63387298583984, -43.33486557006836, 10.189201354980469, -0.055690836161375046, 2.6154258251190186, 4.626594543457031, 51.34484100341797, 4.172017574310303, 
575, 3157678376, -5.496453762054443, -71.17089080810547, -43.358245849609375, 9.818538665771484, -0.1445334553718567, 2.7551114559173584, 4.437230110168457, 53.16000747680664, 4.9329938888549805, 
576, 3157686709, -5.456960678100586, -70.69782257080078, -43.36540985107422, 9.495061874389648, -0.3156031370162964, 2.8715081214904785, 4.508693218231201, 54.36744689941406, 5.567844867706299, 
577, 3157695042, -5.408047199249268, -70.22332763671875, -43.384620666503906, 9.1657133102417, -0.29319247603416443, 2.9986379146575928, 4.276525974273682, 54.531455993652344, 5.099974155426025, 
578, 3157703375, -5.340027332305908, -69.7525863647461, -43.425785064697266, 8.839783668518066, -0.6458141207695007, 3.0966107845306396, 4.112824440002441, 54.22414779663086, 4.036314010620117, 
579, 3157711708, -5.253817081451416, -69.28799438476562, -43.47935104370117, 8.238958358764648, -0.6679897308349609, 3.308424949645996, 4.903255939483643, 53.49829864501953, 3.3855576515197754, 
580, 3157720041, -5.160023212432861, -68.84463500976562, -43.53937911987305, 7.998857021331787, -0.4580169916152954, 3.434596300125122, 5.113496780395508, 51.04205322265625, 2.6948158740997314, 
581, 3157728374, -5.05012321472168, -68.41910552978516, -43.619930267333984, 7.611911773681641, -0.3768360912799835, 3.6667189598083496, 4.762810707092285, 48.953556060791016, 1.5117425918579102, 
582, 3157736707, -4.942155361175537, -68.02710723876953, -43.70010757446289, 6.856769561767578, -0.3612951338291168, 3.8121395111083984, 4.61083984375, 45.00051498413086, 0.9688217639923096, 
583, 3157745040, -4.833615779876709, -67.6740493774414, -43.7845458984375, 6.610294342041016, -0.48343807458877563, 3.9483070373535156, 4.2192463874816895, 40.314903259277344, 0.2807196080684662, 
584, 3157753373, -4.731863021850586, -67.36601257324219, -43.8635139465332, 6.187273025512695, -0.4501740336418152, 4.149139404296875, 4.041226387023926, 34.9589729309082, -0.10163739323616028, 
585, 3157761706, -4.628582954406738, -67.10733795166016, -43.946834564208984, 6.13107442855835, -0.2901068925857544, 4.202200412750244, 3.754549980163574, 29.024166107177734, -0.8464742302894592, 
586, 3157770039, -4.525965690612793, -66.89714050292969, -44.03273010253906, 6.2685136795043945, -0.26195579767227173, 4.20140266418457, 3.4111385345458984, 23.29155921936035, -1.5734061002731323, 
587, 3157778372, -4.43145751953125, -66.7298812866211, -44.10986328125, 6.361240863800049, -0.1850310117006302, 4.236750602722168, 3.4124443531036377, 18.06865692138672, -1.5897220373153687, 
588, 3157786705, -4.341801643371582, -66.60395050048828, -44.185394287109375, 6.543830394744873, -0.12463030219078064, 4.185158729553223, 3.027026653289795, 13.158354759216309, -1.9968092441558838, 
589, 3157795038, -4.258573055267334, -66.5140380859375, -44.255645751953125, 6.88089656829834, -0.1678193062543869, 4.188453197479248, 2.835124969482422, 8.780010223388672, -2.0588982105255127, 
590, 3157803371, -4.1876959800720215, -66.45718383789062, -44.31666564941406, 7.009539604187012, -0.0713900476694107, 4.16549015045166, 2.3768856525421143, 4.832906723022461, -1.9822598695755005, 
591, 3157811704, -4.130399227142334, -66.4278793334961, -44.3656120300293, 7.297240734100342, -0.1268817037343979, 4.175453186035156, 2.0703601837158203, 1.4481135606765747, -1.6100081205368042, 
592, 3157820037, -4.086174488067627, -66.42439270019531, -44.402130126953125, 7.471865177154541, -0.09601651132106781, 4.095834255218506, 1.8826590776443481, -1.6472002267837524, -1.2889851331710815, 
593, 3157828370, -4.0606279373168945, -66.44082641601562, -44.422340393066406, 7.519049644470215, 0.06804527342319489, 4.079503536224365, 1.421756625175476, -4.1298604011535645, -0.6302127242088318, 
594, 3157836703, -4.069443702697754, -66.47974395751953, -44.41099166870117, 7.237816333770752, 0.3635457456111908, 4.175482749938965, 0.7791721820831299, -6.887027263641357, 0.6399075984954834, 
595, 3157845036, -4.122069358825684, -66.544921875, -44.36164855957031, 7.157082557678223, 0.3142433762550354, 4.136219024658203, -0.3014027178287506, -10.20238208770752, 2.2732253074645996, 
596, 3157853369, -4.213387489318848, -66.63825988769531, -44.27726745605469, 7.1906914710998535, 0.15344683825969696, 4.114727020263672, -1.0799988508224487, -13.658638954162598, 3.6278092861175537, 
597, 3157861702, -4.3335371017456055, -66.75761413574219, -44.16744613647461, 7.321859359741211, -0.06875257939100266, 4.067706108093262, -1.7331619262695312, -16.897098541259766, 4.6079888343811035, 
598, 3157870035, -4.472363471984863, -66.90092468261719, -44.03907012939453, 7.510417938232422, -0.22512999176979065, 4.045253276824951, -1.9082609415054321, -19.809186935424805, 5.156544208526611, 
599, 3157878368, -4.621284008026123, -67.0654067993164, -43.90100860595703, 7.797080993652344, -0.2849540710449219, 3.967794179916382, -2.042377471923828, -22.41874122619629, 5.371013164520264, 
