PacketCounter,SampleTimeFine,Euler_X,Euler_Y,Euler_Z,Acc_X,Acc_Y,Acc_Z,Gyr_X,Gyr_Y,Gyr_Z,
0, 3077439919, 12.10072135925293, -87.93930053710938, -106.30227661132812, 0, 0, 0, 0, 0, 0, 
1, 3077448252, 12.097273826599121, -87.9396743774414, -106.29467010498047, 9.805453300476074, -0.08385974913835526, 0.2689670920372009, 1.0640666484832764, -2.2601616382598877, 0.5532675385475159, 
2, 3077456585, 12.0321044921875, -87.93977355957031, -106.2253646850586, 9.800765037536621, -0.07178647816181183, 0.23913279175758362, 1.0451633930206299, -2.1037356853485107, 0.6022931337356567, 
3, 3077464918, 12.02277946472168, -87.93986511230469, -106.21209716796875, 9.811792373657227, -0.0781531035900116, 0.2765260338783264, 1.0300252437591553, -2.2125704288482666, 0.5668174624443054, 
4, 3077473251, 11.970730781555176, -87.94120025634766, -106.15543365478516, 9.833141326904297, -0.08240924775600433, 0.2647426426410675, 1.0841225385665894, -2.237621307373047, 0.5753982067108154, 
5, 3077481584, 11.958732604980469, -87.9408187866211, -106.13931274414062, 9.816765785217285, -0.05484394356608391, 0.23685723543167114, 1.0787947177886963, -2.1713058948516846, 0.5713511109352112, 
6, 3077489917, 11.909309387207031, -87.94043731689453, -106.08463287353516, 9.79836654663086, -0.07500874251127243, 0.2781641185283661, 1.154945969581604, -2.063572645187378, 0.5304195880889893, 
7, 3077498250, 11.907869338989258, -87.94043731689453, -106.07819366455078, 9.832984924316406, -0.06472152471542358, 0.27435141801834106, 1.1782675981521606, -2.2035670280456543, 0.5355552434921265, 
8, 3077506583, 11.854692459106445, -87.94033813476562, -106.02092742919922, 9.833243370056152, -0.07892776280641556, 0.27038902044296265, 1.0565872192382812, -2.095846652984619, 0.5495022535324097, 
9, 3077514916, 11.852169036865234, -87.93977355957031, -106.0135726928711, 9.80968189239502, -0.09784390777349472, 0.28487277030944824, 1.1316626071929932, -2.1491754055023193, 0.5277556777000427, 
10, 3077523249, 11.807061195373535, -87.9408187866211, -105.96453094482422, 9.78174877166748, -0.08468730747699738, 0.26370587944984436, 1.0228277444839478, -2.2217915058135986, 0.5387442708015442, 
11, 3077531582, 11.82373332977295, -87.94005584716797, -105.9769515991211, 9.824767112731934, -0.07053473591804504, 0.26342645287513733, 1.0746965408325195, -2.1347033977508545, 0.4386950135231018, 
12, 3077539915, 11.809407234191895, -87.94062805175781, -105.95858001708984, 9.821145057678223, -0.0868721753358841, 0.28850048780441284, 1.0418590307235718, -2.204374074935913, 0.40086278319358826, 
13, 3077548248, 11.813365936279297, -87.9416732788086, -105.95873260498047, 9.794840812683105, -0.07263306528329849, 0.2870780825614929, 1.0305887460708618, -2.351041078567505, 0.538078248500824, 
14, 3077556581, 11.771055221557617, -87.94367218017578, -105.91217041015625, 9.832365036010742, -0.071418896317482, 0.2837703824043274, 1.0563567876815796, -2.338054656982422, 0.5523710250854492, 
15, 3077564914, 11.761938095092773, -87.94396209716797, -105.89860534667969, 9.812663078308105, -0.07901478558778763, 0.2730843126773834, 1.129229187965393, -2.2758376598358154, 0.5828007459640503, 
16, 3077573247, 11.716291427612305, -87.9455795288086, -105.84716033935547, 9.805651664733887, -0.07097938656806946, 0.26257163286209106, 1.2390373945236206, -2.273097038269043, 0.5607211589813232, 
17, 3077581580, 11.694544792175293, -87.9461441040039, -105.81996154785156, 9.826664924621582, -0.0643756315112114, 0.26539146900177, 1.2052266597747803, -2.2579588890075684, 0.6382042765617371, 
18, 3077589913, 11.637077331542969, -87.94776916503906, -105.75696563720703, 9.805147171020508, -0.08031583577394485, 0.28786563873291016, 1.1900373697280884, -2.2677431106567383, 0.608261227607727, 
19, 3077598246, 11.633007049560547, -87.94843292236328, -105.74929809570312, 9.811388969421387, -0.08954287320375443, 0.26575613021850586, 1.0531548261642456, -2.311979055404663, 0.5647169947624207, 
20, 3077606579, 11.589533805847168, -87.9491958618164, -105.70008850097656, 9.813413619995117, -0.0912402868270874, 0.2713835835456848, 1.1770509481430054, -2.171997547149658, 0.5299329161643982, 
21, 3077614912, 11.581367492675781, -87.94853210449219, -105.68729400634766, 9.795071601867676, -0.06883516907691956, 0.30338016152381897, 1.1207765340805054, -2.1182332038879395, 0.5449941158294678, 
22, 3077623245, 11.52209758758545, -87.94977569580078, -105.62358856201172, 9.801531791687012, -0.06745056062936783, 0.2660919427871704, 1.1015658378601074, -2.255781888961792, 0.6111044883728027, 
23, 3077631578, 11.50523853302002, -87.95024871826172, -105.60171508789062, 9.820403099060059, -0.08316317945718765, 0.23688744008541107, 1.182199478149414, -2.279193162918091, 0.618455708026886, 
24, 3077639911, 11.436059951782227, -87.95149230957031, -105.528076171875, 9.800517082214355, -0.07720241695642471, 0.27035823464393616, 1.0785130262374878, -2.2209208011627197, 0.6475535035133362, 
25, 3077648244, 11.440390586853027, -87.95187377929688, -105.52687072753906, 9.82424545288086, -0.08635188639163971, 0.24570904672145844, 1.228971004486084, -2.2576513290405273, 0.5245539546012878, 
26, 3077656577, 11.407039642333984, -87.95263671875, -105.48910522460938, 9.812233924865723, -0.08918686956167221, 0.26670965552330017, 1.0762077569961548, -2.231832265853882, 0.4915371835231781, 
27, 3077664910, 11.444937705993652, -87.95283508300781, -105.5238037109375, 9.787264823913574, -0.062257055193185806, 0.2617388367652893, 0.9738020896911621, -2.282599925994873, 0.372123658657074, 
28, 3077673243, 11.40786361694336, -87.95436096191406, -105.4821548461914, 9.842925071716309, -0.10900512337684631, 0.2655717730522156, 1.0928313732147217, -2.282318115234375, 0.519507884979248, 
29, 3077681576, 11.440934181213379, -87.95417022705078, -105.5107192993164, 9.799107551574707, -0.07492297887802124, 0.25266629457473755, 1.119572639465332, -2.2573187351226807, 0.3946641683578491, 
30, 3077689909, 11.414761543273926, -87.95589447021484, -105.47901916503906, 9.83641529083252, -0.09314267337322235, 0.26090124249458313, 1.181764006614685, -2.272482395172119, 0.4740426540374756, 
31, 3077698242, 11.444282531738281, -87.9562759399414, -105.50387573242188, 9.78309440612793, -0.07005760818719864, 0.22749021649360657, 1.1527173519134521, -2.304448366165161, 0.4204576313495636, 
32, 3077706575, 11.42931842803955, -87.95790100097656, -105.48463439941406, 9.817814826965332, -0.07593405991792679, 0.27173081040382385, 1.041628360748291, -2.314950466156006, 0.42855173349380493, 
33, 3077714908, 11.45998764038086, -87.95722961425781, -105.51038360595703, 9.807908058166504, -0.05714051052927971, 0.2734304666519165, 1.1460832357406616, -2.1467416286468506, 0.3822924494743347, 
34, 3077723241, 11.402066230773926, -87.95818328857422, -105.44844055175781, 9.817373275756836, -0.05949002876877785, 0.2523272633552551, 1.074824571609497, -2.272174835205078, 0.6093626618385315, 
35, 3077731574, 11.41402530670166, -87.95877075195312, -105.45552062988281, 9.815165519714355, -0.07789956033229828, 0.25717470049858093, 1.1398334503173828, -2.2547314167022705, 0.48549219965934753, 
36, 3077739907, 11.364581108093262, -87.95972442626953, -105.40010833740234, 9.813003540039062, -0.07070253044366837, 0.26063084602355957, 1.2440321445465088, -2.2016584873199463, 0.5648706555366516, 
37, 3077748240, 11.36104965209961, -87.9589614868164, -105.39112854003906, 9.793815612792969, -0.06037115678191185, 0.2712266743183136, 1.2280744314193726, -2.1285300254821777, 0.5314953327178955, 
38, 3077756573, 11.295822143554688, -87.96029663085938, -105.32087707519531, 9.82847785949707, -0.0627003163099289, 0.27163225412368774, 1.1607346534729004, -2.2644906044006348, 0.6413547992706299, 
39, 3077764906, 11.317558288574219, -87.95934295654297, -105.3375015258789, 9.789962768554688, -0.061612796038389206, 0.23381854593753815, 1.203023910522461, -2.1321160793304443, 0.4220457673072815, 
40, 3077773239, 11.268197059631348, -87.9601058959961, -105.2824478149414, 9.818938255310059, -0.07818195223808289, 0.2509850859642029, 1.210938811302185, -2.1984059810638428, 0.5615665316581726, 
41, 3077781572, 11.263432502746582, -87.95953369140625, -105.27272033691406, 9.80260181427002, -0.07842010259628296, 0.24931663274765015, 1.1754627227783203, -2.160829544067383, 0.5431498885154724, 
42, 3077789905, 11.209901809692383, -87.9615478515625, -105.21387481689453, 9.816171646118164, -0.073111392557621, 0.25784456729888916, 1.1705706119537354, -2.310263156890869, 0.5996036529541016, 
43, 3077798238, 11.191354751586914, -87.95991516113281, -105.19085693359375, 9.791614532470703, -0.08015485852956772, 0.2688078284263611, 1.1310220956802368, -2.0379581451416016, 0.5763714909553528, 
44, 3077806571, 11.140690803527832, -87.96106719970703, -105.13435363769531, 9.793331146240234, -0.0844670981168747, 0.27845120429992676, 1.1825835704803467, -2.179784059524536, 0.5631802082061768, 
45, 3077814904, 11.134596824645996, -87.96048736572266, -105.12283325195312, 9.806824684143066, -0.08236497640609741, 0.2601853013038635, 1.2347341775894165, -2.14026141166687, 0.5455319881439209, 
46, 3077823237, 11.090755462646484, -87.96067810058594, -105.07398986816406, 9.805489540100098, -0.07570100575685501, 0.2793125808238983, 1.162450909614563, -2.1609578132629395, 0.530573308467865, 
47, 3077831570, 11.068881034851074, -87.96029663085938, -105.04853820800781, 9.784955024719238, -0.08863750845193863, 0.27622437477111816, 0.9944214224815369, -2.1690261363983154, 0.6117191314697266, 
48, 3077839903, 11.000436782836914, -87.95943450927734, -104.97541809082031, 9.843786239624023, -0.08163464814424515, 0.27565208077430725, 1.0604804754257202, -1.9643172025680542, 0.596145749092102, 
49, 3077848236, 10.98868179321289, -87.95809173583984, -104.95889282226562, 9.815605163574219, -0.07741177082061768, 0.2840157449245453, 1.1552276611328125, -2.0561444759368896, 0.5497839450836182, 
50, 3077856569, 10.923822402954102, -87.95790100097656, -104.88906860351562, 9.818947792053223, -0.09213051199913025, 0.25515997409820557, 1.1388089656829834, -2.076482057571411, 0.6060072183609009, 
51, 3077864902, 10.918752670288086, -87.95636749267578, -104.88008117675781, 9.783361434936523, -0.09287365525960922, 0.2447805106639862, 1.0337904691696167, -2.031196117401123, 0.513821542263031, 
52, 3077873235, 10.885259628295898, -87.95445251464844, -104.84255981445312, 9.840943336486816, -0.08670089393854141, 0.27051493525505066, 1.0178583860397339, -1.883453130722046, 0.426733136177063, 
53, 3077881568, 10.88985824584961, -87.95301818847656, -104.84296417236328, 9.772375106811523, -0.06666966527700424, 0.274441123008728, 1.096801519393921, -2.0894172191619873, 0.48392975330352783, 
54, 3077889901, 10.87955379486084, -87.95474243164062, -104.8271484375, 9.836665153503418, -0.0671764686703682, 0.2500762641429901, 1.1733624935150146, -2.2946386337280273, 0.411441445350647, 
55, 3077898234, 10.900117874145508, -87.95339965820312, -104.84393310546875, 9.799646377563477, -0.07838146388530731, 0.25370725989341736, 1.018524408340454, -2.075021982192993, 0.4100070595741272, 
56, 3077906567, 10.848760604858398, -87.95301818847656, -104.78761291503906, 9.822783470153809, -0.07133740186691284, 0.3037247061729431, 1.1179077625274658, -2.0711798667907715, 0.5458393692970276, 
57, 3077914900, 10.867682456970215, -87.95301818847656, -104.80219268798828, 9.77521800994873, -0.06427759677171707, 0.2615814208984375, 1.1291266679763794, -2.2539117336273193, 0.45554912090301514, 
58, 3077923233, 10.817961692810059, -87.95436096191406, -104.74739074707031, 9.809013366699219, -0.0725269541144371, 0.26083365082740784, 1.1374001502990723, -2.2538609504699707, 0.5740918517112732, 
59, 3077931566, 10.798494338989258, -87.95512390136719, -104.7236557006836, 9.803397178649902, -0.06774841248989105, 0.2602805495262146, 1.0951879024505615, -2.32765531539917, 0.6358221769332886, 
60, 3077939899, 10.745116233825684, -87.95771026611328, -104.66529846191406, 9.808334350585938, -0.07749617099761963, 0.2723589837551117, 1.1383222341537476, -2.3941497802734375, 0.6152282953262329, 
61, 3077948232, 10.729555130004883, -87.95857238769531, -104.64474487304688, 9.810844421386719, -0.076573446393013, 0.2742258906364441, 1.1787158250808716, -2.3096742630004883, 0.618020236492157, 
62, 3077956565, 10.681105613708496, -87.9601058959961, -104.5912094116211, 9.795475959777832, -0.07327480614185333, 0.28738075494766235, 1.1397310495376587, -2.298173427581787, 0.5773448944091797, 
63, 3077964898, 10.666911125183105, -87.96039581298828, -104.57286834716797, 9.788752555847168, -0.07410149276256561, 0.2833843231201172, 1.0731083154678345, -2.2269909381866455, 0.5924828052520752, 
64, 3077973231, 10.621829986572266, -87.96221923828125, -104.52290344238281, 9.83041000366211, -0.09594643115997314, 0.2733921408653259, 1.0985561609268188, -2.314297676086426, 0.5646786093711853, 
65, 3077981564, 10.629770278930664, -87.96279907226562, -104.5266342163086, 9.794431686401367, -0.09146776050329208, 0.2321629375219345, 1.1158456802368164, -2.3296914100646973, 0.5162164568901062, 
66, 3077989897, 10.588616371154785, -87.9643325805664, -104.480224609375, 9.823301315307617, -0.059109773486852646, 0.27946609258651733, 1.1255536079406738, -2.2583558559417725, 0.538424015045166, 
67, 3077998230, 10.569112777709961, -87.96500396728516, -104.45660400390625, 9.836124420166016, -0.07084441930055618, 0.272203266620636, 1.0884257555007935, -2.2859551906585693, 0.6260374784469604, 
68, 3078006563, 10.512192726135254, -87.96577453613281, -104.39508819580078, 9.813040733337402, -0.08358178287744522, 0.2746618986129761, 1.1119651794433594, -2.210367441177368, 0.5962737798690796, 
69, 3078014896, 10.466947555541992, -87.96626281738281, -104.3448715209961, 9.822086334228516, -0.07588429749011993, 0.2601546347141266, 1.1854524612426758, -2.2688963413238525, 0.7372032999992371, 
70, 3078023229, 10.37472915649414, -87.96866607666016, -104.2465591430664, 9.825008392333984, -0.07949727028608322, 0.24320416152477264, 1.2378848791122437, -2.348453998565674, 0.7796973586082458, 
71, 3078031562, 10.33396053314209, -87.97030639648438, -104.20066833496094, 9.792984008789062, -0.050947535783052444, 0.27070853114128113, 1.1720049381256104, -2.355907678604126, 0.7326439619064331, 
72, 3078039895, 10.245635032653809, -87.97184753417969, -104.1068115234375, 9.831767082214355, -0.06444445997476578, 0.2842285633087158, 1.1916254758834839, -2.25111985206604, 0.7419675588607788, 
73, 3078048228, 10.227097511291504, -87.97319793701172, -104.08284759521484, 9.819791793823242, -0.07663428038358688, 0.2687656879425049, 1.2201980352401733, -2.3537943363189697, 0.6391391754150391, 
74, 3078056561, 10.157158851623535, -87.97513580322266, -104.00826263427734, 9.791960716247559, -0.061415452510118484, 0.2690095007419586, 1.0737743377685547, -2.331958532333374, 0.6716564297676086, 
75, 3078064894, 10.131299018859863, -87.97551727294922, -103.97789001464844, 9.826272010803223, -0.0941946730017662, 0.26314032077789307, 1.1205203533172607, -2.2366225719451904, 0.6445310115814209, 
76, 3078073227, 10.0536470413208, -87.97628784179688, -103.89527130126953, 9.822517395019531, -0.09003032743930817, 0.26893410086631775, 1.1354022026062012, -2.2005317211151123, 0.6835927963256836, 
77, 3078081560, 10.021507263183594, -87.97551727294922, -103.85984802246094, 9.807558059692383, -0.08313702791929245, 0.2840118408203125, 0.9661433100700378, -2.105323553085327, 0.6440187692642212, 
78, 3078089893, 9.981273651123047, -87.9760971069336, -103.81513214111328, 9.801471710205078, -0.08031202852725983, 0.23750552535057068, 1.0626577138900757, -2.1736879348754883, 0.5160499811172485, 
79, 3078098226, 9.98117733001709, -87.9757080078125, -103.8102798461914, 9.806511878967285, -0.07777034491300583, 0.26989954710006714, 1.1526917219161987, -2.1808855533599854, 0.5259114503860474, 
80, 3078106559, 9.950039863586426, -87.97667694091797, -103.77442169189453, 9.810855865478516, -0.08594969660043716, 0.22722859680652618, 1.0957515239715576, -2.254040002822876, 0.49212634563446045, 
81, 3078114892, 9.972527503967285, -87.97657775878906, -103.79263305664062, 9.800374984741211, -0.08081205189228058, 0.2626226544380188, 1.0914480686187744, -2.214824676513672, 0.4308058023452759, 
82, 3078123225, 9.958622932434082, -87.97676849365234, -103.77372741699219, 9.804545402526855, -0.08076411485671997, 0.2631126642227173, 1.1368110179901123, -2.1736369132995605, 0.4068053066730499, 
83, 3078131558, 9.976822853088379, -87.97686767578125, -103.78752899169922, 9.816170692443848, -0.11638487875461578, 0.24742504954338074, 1.1107869148254395, -2.241668224334717, 0.4541916251182556, 
84, 3078139891, 9.946207046508789, -87.9784164428711, -103.75291442871094, 9.785734176635742, -0.08310329914093018, 0.2756294906139374, 1.003719449043274, -2.2928969860076904, 0.49525126814842224, 
85, 3078148224, 9.975921630859375, -87.9784164428711, -103.77816772460938, 9.832305908203125, -0.08110372722148895, 0.31672772765159607, 1.1005154848098755, -2.2318835258483887, 0.4040389657020569, 
86, 3078156557, 9.980744361877441, -87.97957611083984, -103.778564453125, 9.798578262329102, -0.0675847977399826, 0.29656603932380676, 1.095802664756775, -2.3171021938323975, 0.35178589820861816, 
87, 3078164890, 9.997801780700684, -87.98054504394531, -103.79110717773438, 9.782341957092285, -0.0726105347275734, 0.2680372893810272, 1.1004899740219116, -2.3369534015655518, 0.4772188663482666, 
88, 3078173223, 9.965508460998535, -87.98268127441406, -103.75338745117188, 9.825989723205566, -0.07375961542129517, 0.287941038608551, 1.2083516120910645, -2.399810791015625, 0.527192234992981, 
89, 3078181556, 9.954046249389648, -87.98316192626953, -103.73738098144531, 9.8079195022583, -0.07246167957782745, 0.26293468475341797, 1.118112564086914, -2.266078472137451, 0.5872831344604492, 
90, 3078189889, 9.891767501831055, -87.9852066040039, -103.67062377929688, 9.814130783081055, -0.07229456305503845, 0.2303222119808197, 1.0551272630691528, -2.309725284576416, 0.6357453465461731, 
91, 3078198222, 9.9035005569458, -87.98588562011719, -103.67652893066406, 9.836408615112305, -0.09292133152484894, 0.26938703656196594, 1.2520495653152466, -2.2999918460845947, 0.4990677833557129, 
92, 3078206555, 9.867480278015137, -87.98705291748047, -103.63678741455078, 9.805813789367676, -0.0962635725736618, 0.284511923789978, 1.0035912990570068, -2.2832400798797607, 0.5149485468864441, 
93, 3078214888, 9.874774932861328, -87.98686218261719, -103.63864135742188, 9.796679496765137, -0.09061979502439499, 0.29628095030784607, 1.2108616828918457, -2.173482894897461, 0.49596843123435974, 
94, 3078223221, 9.83551025390625, -87.98851013183594, -103.59468078613281, 9.811614036560059, -0.09293526411056519, 0.2376011610031128, 1.0933181047439575, -2.3346991539001465, 0.5421765446662903, 
95, 3078231554, 9.844263076782227, -87.98831176757812, -103.59907531738281, 9.828624725341797, -0.07031833380460739, 0.27511781454086304, 1.093497395515442, -2.2094969749450684, 0.48920631408691406, 
96, 3078239887, 9.804425239562988, -87.98889923095703, -103.55421447753906, 9.824614524841309, -0.0726490169763565, 0.26299747824668884, 1.1349154710769653, -2.1791181564331055, 0.5195590853691101, 
97, 3078248220, 9.811626434326172, -87.98870086669922, -103.5571060180664, 9.822806358337402, -0.07077740132808685, 0.26435133814811707, 1.082175850868225, -2.1949222087860107, 0.49430352449417114, 
98, 3078256553, 9.79614543914795, -87.98812103271484, -103.53751373291016, 9.790366172790527, -0.07466059178113937, 0.24568472802639008, 1.0557419061660767, -2.088341236114502, 0.3964058756828308, 
99, 3078264886, 9.817218780517578, -87.98783111572266, -103.55404663085938, 9.81828498840332, -0.07380221784114838, 0.2611420750617981, 1.1387065649032593, -2.232370376586914, 0.44345930218696594, 
100, 3078273219, 9.773520469665527, -87.98812103271484, -103.505859375, 9.826019287109375, -0.07345373928546906, 0.2769785523414612, 1.0828931331634521, -2.1560657024383545, 0.5310087203979492, 
101, 3078281552, 9.768231391906738, -87.98802947998047, -103.49554443359375, 9.806499481201172, -0.054755788296461105, 0.2734123468399048, 1.1704425811767578, -2.1690773963928223, 0.5448660254478455, 
102, 3078289885, 9.709064483642578, -87.9894790649414, -103.43110656738281, 9.82027816772461, -0.08446714282035828, 0.2597113847732544, 1.1542543172836304, -2.29038667678833, 0.6239628195762634, 
103, 3078298218, 9.70550537109375, -87.98851013183594, -103.42347717285156, 9.82413101196289, -0.07284073531627655, 0.26947274804115295, 1.0697530508041382, -2.1105234622955322, 0.5246819853782654, 
104, 3078306551, 9.637532234191895, -87.98928833007812, -103.35102844238281, 9.790968894958496, -0.06961192190647125, 0.27581071853637695, 1.0560749769210815, -2.15675687789917, 0.6347463726997375, 
105, 3078314884, 9.627508163452148, -87.98908996582031, -103.33662414550781, 9.802908897399902, -0.08026883751153946, 0.28330197930336, 1.0889892578125, -2.1759421825408936, 0.5640767216682434, 
106, 3078323217, 9.566144943237305, -87.9894790649414, -103.27099609375, 9.76988697052002, -0.08360762149095535, 0.25970658659935, 1.0563055276870728, -2.1589341163635254, 0.6069037318229675, 
107, 3078331550, 9.56239128112793, -87.98977661132812, -103.26239776611328, 9.81000804901123, -0.07481735199689865, 0.2708302438259125, 1.1430351734161377, -2.2512991428375244, 0.5521660447120667, 
108, 3078339883, 9.503812789916992, -87.99124145507812, -103.19953155517578, 9.787784576416016, -0.07005457580089569, 0.26416900753974915, 1.0325610637664795, -2.2596492767333984, 0.6108482480049133, 
109, 3078348216, 9.474955558776855, -87.99104309082031, -103.16695404052734, 9.821209907531738, -0.06884651631116867, 0.26160678267478943, 1.0255171060562134, -2.206986427307129, 0.6478352546691895, 
110, 3078356549, 9.43133544921875, -87.99163055419922, -103.11790466308594, 9.80033016204834, -0.06688325107097626, 0.2624590992927551, 1.1922403573989868, -2.2149529457092285, 0.5461980104446411, 
111, 3078364882, 9.457047462463379, -87.99124145507812, -103.13882446289062, 9.799969673156738, -0.09657340496778488, 0.2816430628299713, 1.1364268064498901, -2.178682804107666, 0.4130551815032959, 
112, 3078373215, 9.419439315795898, -87.99163055419922, -103.09733581542969, 9.790855407714844, -0.07452663034200668, 0.26547378301620483, 1.0080738067626953, -2.157038927078247, 0.5041905641555786, 
113, 3078381548, 9.418267250061035, -87.99221801757812, -103.0921401977539, 9.82030963897705, -0.08406578004360199, 0.2752271592617035, 1.0787434577941895, -2.316948175430298, 0.5498351454734802, 
114, 3078389881, 9.39785385131836, -87.9937744140625, -103.0662612915039, 9.773841857910156, -0.07123181968927383, 0.24727557599544525, 1.158941626548767, -2.2737884521484375, 0.4557797610759735, 
115, 3078398214, 9.381338119506836, -87.9943618774414, -103.0450439453125, 9.83382511138916, -0.052272457629442215, 0.25599220395088196, 1.1628351211547852, -2.299351692199707, 0.6151515245437622, 
116, 3078406547, 9.345849990844727, -87.9957275390625, -103.00408172607422, 9.80350112915039, -0.0833575576543808, 0.2874172627925873, 1.1785366535186768, -2.283137798309326, 0.5215827226638794, 
117, 3078414880, 9.34327507019043, -87.99699401855469, -102.99605560302734, 9.831293106079102, -0.06955476850271225, 0.25816962122917175, 1.2162151336669922, -2.35844349861145, 0.5689945816993713, 
118, 3078423213, 9.300477027893066, -87.9986572265625, -102.9486312866211, 9.802417755126953, -0.07507672905921936, 0.26651105284690857, 1.1190346479415894, -2.3488123416900635, 0.5610285401344299, 
119, 3078431546, 9.290520668029785, -87.99885559082031, -102.93443298339844, 9.862963676452637, -0.07437977194786072, 0.28030404448509216, 1.0627089738845825, -2.231217384338379, 0.5726318359375, 
120, 3078439879, 9.254932403564453, -88.00149536132812, -102.89362335205078, 9.783452987670898, -0.07145807892084122, 0.24182525277137756, 1.174233317375183, -2.436464548110962, 0.5469663739204407, 
121, 3078448212, 9.21515941619873, -88.00179290771484, -102.84912109375, 9.823012351989746, -0.07691557705402374, 0.27804553508758545, 1.1723122596740723, -2.2703816890716553, 0.7093093991279602, 
122, 3078456545, 9.155303001403809, -88.00315856933594, -102.78406524658203, 9.787360191345215, -0.05653451010584831, 0.3039567172527313, 1.1612982749938965, -2.265310287475586, 0.6210939884185791, 
123, 3078464878, 9.13125991821289, -88.00375366210938, -102.75517272949219, 9.820442199707031, -0.07318747788667679, 0.2568296194076538, 1.13760507106781, -2.280550718307495, 0.6429429650306702, 
124, 3078473211, 9.079351425170898, -88.00590515136719, -102.6985855102539, 9.8159761428833, -0.09612031280994415, 0.28530585765838623, 1.094061017036438, -2.34901762008667, 0.5979899764060974, 
125, 3078481544, 9.063042640686035, -88.00639343261719, -102.67805480957031, 9.79603099822998, -0.08034194260835648, 0.2627529203891754, 1.087401032447815, -2.277656078338623, 0.6075440049171448, 
126, 3078489877, 8.986871719360352, -88.00777435302734, -102.59756469726562, 9.809650421142578, -0.08069799840450287, 0.28041353821754456, 1.054076910018921, -2.2656173706054688, 0.6858723759651184, 
127, 3078498210, 8.963119506835938, -88.00806427001953, -102.56935119628906, 9.82580852508545, -0.05661853030323982, 0.24848750233650208, 1.1207252740859985, -2.262159824371338, 0.6375895738601685, 
128, 3078506543, 8.923137664794922, -88.01022338867188, -102.52445220947266, 9.7996826171875, -0.0837310329079628, 0.24077777564525604, 1.0838918685913086, -2.342664957046509, 0.547581136226654, 
129, 3078514876, 8.93629264831543, -88.0101318359375, -102.5331039428711, 9.786745071411133, -0.08405213803052902, 0.2468223124742508, 1.1229023933410645, -2.222764730453491, 0.47378647327423096, 
130, 3078523209, 8.893807411193848, -88.01229858398438, -102.48631286621094, 9.849573135375977, -0.0765310749411583, 0.2823530435562134, 1.0549992322921753, -2.3785252571105957, 0.562181293964386, 
131, 3078531542, 8.922446250915527, -88.01258850097656, -102.51073455810547, 9.760663032531738, -0.07862541079521179, 0.2809869647026062, 1.0733133554458618, -2.278809070587158, 0.41710224747657776, 
132, 3078539875, 8.912186622619629, -88.01456451416016, -102.49588012695312, 9.820630073547363, -0.08266201615333557, 0.26525217294692993, 1.1104795932769775, -2.3964040279388428, 0.4312669038772583, 
133, 3078548208, 8.9136323928833, -88.01525115966797, -102.4937744140625, 9.836894989013672, -0.05920372158288956, 0.24999453127384186, 1.0113269090652466, -2.3239924907684326, 0.5372074246406555, 
134, 3078556541, 8.87378978729248, -88.01673126220703, -102.44956970214844, 9.833965301513672, -0.08824754506349564, 0.27218902111053467, 1.0410906076431274, -2.2806789875030518, 0.5351070165634155, 
135, 3078564874, 8.884139060974121, -88.01880645751953, -102.45614624023438, 9.783132553100586, -0.08006314933300018, 0.24185322225093842, 1.0004408359527588, -2.4388208389282227, 0.516767144203186, 
136, 3078573207, 8.830416679382324, -88.0218734741211, -102.3977279663086, 9.823326110839844, -0.07766582816839218, 0.2789326608181, 1.1047420501708984, -2.484952211380005, 0.6268828511238098, 
137, 3078581540, 8.838116645812988, -88.0218734741211, -102.40202331542969, 9.791040420532227, -0.06168104335665703, 0.2562301754951477, 0.9948824644088745, -2.232088565826416, 0.4946877062320709, 
138, 3078589873, 8.804091453552246, -88.02384185791016, -102.3633804321289, 9.825586318969727, -0.07913750410079956, 0.2640132009983063, 1.0701371431350708, -2.371814012527466, 0.5268336534500122, 
139, 3078598206, 8.806258201599121, -88.0241470336914, -102.36181640625, 9.803006172180176, -0.08092113584280014, 0.2617835998535156, 1.0347894430160522, -2.268486261367798, 0.5264493823051453, 
140, 3078606539, 8.776605606079102, -88.0257339477539, -102.32746887207031, 9.804097175598145, -0.08685072511434555, 0.30380740761756897, 1.099388599395752, -2.327270984649658, 0.5007326602935791, 
141, 3078614872, 8.78419303894043, -88.02543640136719, -102.33032989501953, 9.813117027282715, -0.0635705515742302, 0.29995599389076233, 1.1560986042022705, -2.2022225856781006, 0.4975309371948242, 
142, 3078623205, 8.760993957519531, -88.02691650390625, -102.30265808105469, 9.809033393859863, -0.08996645361185074, 0.24658697843551636, 1.047417163848877, -2.296431303024292, 0.46863800287246704, 
143, 3078631538, 8.742301940917969, -88.02662658691406, -102.2794189453125, 9.818431854248047, -0.07073043286800385, 0.19755178689956665, 1.1439318656921387, -2.196843385696411, 0.605955958366394, 
144, 3078639871, 8.694377899169922, -88.02851104736328, -102.22651672363281, 9.8283052444458, -0.07769297808408737, 0.26082199811935425, 1.0998752117156982, -2.301093101501465, 0.5740405917167664, 
145, 3078648204, 8.7286376953125, -88.02811431884766, -102.25627899169922, 9.814933776855469, -0.08905784785747528, 0.2866060137748718, 1.115218162536621, -2.1905677318573, 0.3806019425392151, 
146, 3078656537, 8.694439888000488, -88.02999877929688, -102.21736145019531, 9.83169174194336, -0.08011645078659058, 0.2907126247882843, 1.0952903032302856, -2.3572397232055664, 0.5274483561515808, 
147, 3078664870, 8.710545539855957, -88.02930450439453, -102.22889709472656, 9.793197631835938, -0.0677163302898407, 0.24493670463562012, 1.1259506940841675, -2.140825033187866, 0.44942742586135864, 
148, 3078673203, 8.692333221435547, -88.02970123291016, -102.20572662353516, 9.813652038574219, -0.07297977060079575, 0.22439998388290405, 1.1179845333099365, -2.187980890274048, 0.43416133522987366, 
149, 3078681536, 8.687103271484375, -88.02980041503906, -102.19574737548828, 9.839265823364258, -0.08085156977176666, 0.2752055525779724, 1.1535371541976929, -2.2368016242980957, 0.5564436316490173, 
150, 3078689869, 8.631294250488281, -88.02920532226562, -102.13494873046875, 9.795801162719727, -0.07624956220388412, 0.2910557687282562, 1.1505144834518433, -2.06490421295166, 0.5726830363273621, 
151, 3078698202, 8.613081932067871, -88.02900695800781, -102.11156463623047, 9.821897506713867, -0.06988714635372162, 0.267560750246048, 1.1691361665725708, -2.1750967502593994, 0.6011917591094971, 
152, 3078706535, 8.546361923217773, -88.02960205078125, -102.04057312011719, 9.796467781066895, -0.052853070199489594, 0.25140640139579773, 1.0512850284576416, -2.1937952041625977, 0.6364112496376038, 
153, 3078714868, 8.496346473693848, -88.02920532226562, -101.98628997802734, 9.789092063903809, -0.07642749696969986, 0.2555018663406372, 1.0933693647384644, -2.14143967628479, 0.7254207730293274, 
154, 3078723201, 8.42265510559082, -88.02980041503906, -101.90728759765625, 9.8108549118042, -0.07241806387901306, 0.2373601198196411, 1.1903190612792969, -2.216489315032959, 0.6728090643882751, 
155, 3078731534, 8.364919662475586, -88.02880096435547, -101.84447479248047, 9.827031135559082, -0.07003562152385712, 0.2774032950401306, 1.214089035987854, -2.0899550914764404, 0.7551332116127014, 
156, 3078739867, 8.277887344360352, -88.0303955078125, -101.75172424316406, 9.804516792297363, -0.08485494554042816, 0.2951117753982544, 1.1273592710494995, -2.2096760272979736, 0.724806010723114, 
157, 3078748200, 8.219433784484863, -88.03128814697266, -101.6880874633789, 9.820263862609863, -0.08296336233615875, 0.27866730093955994, 1.2008978128433228, -2.303372859954834, 0.7898918390274048, 
158, 3078756533, 8.149765014648438, -88.0331802368164, -101.61361694335938, 9.800139427185059, -0.07391007989645004, 0.24887502193450928, 1.1458014249801636, -2.3784735202789307, 0.6768561005592346, 
159, 3078764866, 8.140552520751953, -88.03357696533203, -101.60034942626953, 9.801288604736328, -0.07471776753664017, 0.2584317922592163, 1.0439338684082031, -2.2562172412872314, 0.5706852674484253, 
160, 3078773199, 8.098661422729492, -88.03417205810547, -101.55284881591797, 9.807027816772461, -0.09394552558660507, 0.27189454436302185, 1.1552915573120117, -2.144526243209839, 0.5298431515693665, 
161, 3078781532, 8.117932319641113, -88.0340805053711, -101.56816864013672, 9.804171562194824, -0.07278097420930862, 0.24831198155879974, 1.0880670547485352, -2.2383384704589844, 0.45014458894729614, 
162, 3078789865, 8.099370956420898, -88.03377532958984, -101.5455093383789, 9.81350326538086, -0.07018592953681946, 0.2535143792629242, 1.0219311714172363, -2.1063740253448486, 0.42263489961624146, 
163, 3078798198, 8.097024917602539, -88.03347778320312, -101.53885650634766, 9.806490898132324, -0.06686367094516754, 0.26118752360343933, 1.072237491607666, -2.172356128692627, 0.5303683280944824, 
164, 3078806531, 8.058796882629395, -88.03377532958984, -101.49687194824219, 9.800284385681152, -0.08607953786849976, 0.27756214141845703, 1.025465965270996, -2.2199220657348633, 0.5224535465240479, 
165, 3078814864, 8.05445384979248, -88.03417205810547, -101.48787689208984, 9.805793762207031, -0.07965012639760971, 0.25234001874923706, 1.1108893156051636, -2.250889301300049, 0.5510902404785156, 
166, 3078823197, 7.982877731323242, -88.03457641601562, -101.41252899169922, 9.809305191040039, -0.05991647019982338, 0.2354782670736313, 0.9766963720321655, -2.148099184036255, 0.6477070450782776, 
167, 3078831530, 7.926825523376465, -88.03486633300781, -101.3518295288086, 9.786469459533691, -0.0644073337316513, 0.23759733140468597, 1.140653133392334, -2.2261972427368164, 0.7652252912521362, 
168, 3078839863, 7.846927642822266, -88.0358657836914, -101.26698303222656, 9.811198234558105, -0.07832884043455124, 0.23887993395328522, 1.1149619817733765, -2.2474827766418457, 0.6996528506278992, 
169, 3078848196, 7.8025641441345215, -88.036865234375, -101.21746826171875, 9.785167694091797, -0.06682509928941727, 0.29060301184654236, 1.1902422904968262, -2.3054733276367188, 0.7276492714881897, 
170, 3078856529, 7.743720054626465, -88.03716278076172, -101.15421295166016, 9.81907844543457, -0.07624601572751999, 0.2568763494491577, 1.0789995193481445, -2.17988657951355, 0.6035737991333008, 
171, 3078864862, 7.723908424377441, -88.03826141357422, -101.12993621826172, 9.789040565490723, -0.09370235353708267, 0.2555764317512512, 1.1438548564910889, -2.377782106399536, 0.6345414519309998, 
172, 3078873195, 7.651486873626709, -88.03995513916016, -101.05150604248047, 9.790914535522461, -0.06780071556568146, 0.25667211413383484, 1.2001805305480957, -2.243563652038574, 0.6715028285980225, 
173, 3078881528, 7.61478853225708, -88.04055786132812, -101.01081085205078, 9.802826881408691, -0.09750629961490631, 0.2732965350151062, 1.0405014753341675, -2.277143955230713, 0.6868969202041626, 
174, 3078889861, 7.5772318840026855, -88.04155731201172, -100.9686508178711, 9.80746841430664, -0.07302751392126083, 0.3002832233905792, 1.0963149070739746, -2.2815237045288086, 0.5290876626968384, 
175, 3078898194, 7.54905366897583, -88.04095458984375, -100.93675231933594, 9.788216590881348, -0.07862856984138489, 0.2923085689544678, 1.0439338684082031, -2.1781961917877197, 0.6386397480964661, 
176, 3078906527, 7.489665985107422, -88.04145050048828, -100.8724365234375, 9.800662994384766, -0.08541137725114822, 0.24084512889385223, 1.1024622917175293, -2.15278697013855, 0.6011660695075989, 
177, 3078914860, 7.481446266174316, -88.04145050048828, -100.85935974121094, 9.797232627868652, -0.07840920984745026, 0.2550387978553772, 1.1538957357406616, -2.2028884887695312, 0.5631033778190613, 
178, 3078923193, 7.434221267700195, -88.04075622558594, -100.80704498291016, 9.775028228759766, -0.07583881914615631, 0.28670892119407654, 1.1172418594360352, -2.0374460220336914, 0.5365670323371887, 
179, 3078931526, 7.414120197296143, -88.03965759277344, -100.78301239013672, 9.830096244812012, -0.08625365048646927, 0.2741791903972626, 1.0470330715179443, -2.0896732807159424, 0.5934818387031555, 
180, 3078939859, 7.3489813804626465, -88.04075622558594, -100.7132339477539, 9.78547477722168, -0.07322008907794952, 0.2735491394996643, 1.0811512470245361, -2.244741916656494, 0.6378200650215149, 
181, 3078948192, 7.3108134269714355, -88.04075622558594, -100.6701889038086, 9.831066131591797, -0.08746249973773956, 0.27859634160995483, 1.1566108465194702, -2.189440965652466, 0.6849502921104431, 
182, 3078956525, 7.254849433898926, -88.04145050048828, -100.60942077636719, 9.796987533569336, -0.07536609470844269, 0.24204589426517487, 1.110889196395874, -2.2084720134735107, 0.5981947779655457, 
183, 3078964858, 7.222176551818848, -88.04185485839844, -100.57210540771484, 9.8192138671875, -0.09069942682981491, 0.2842760384082794, 1.1621947288513184, -2.289003372192383, 0.6751912832260132, 
184, 3078973191, 7.161085605621338, -88.04335021972656, -100.50556945800781, 9.794700622558594, -0.07718075066804886, 0.26759111881256104, 1.1605298519134521, -2.2818825244903564, 0.6283684372901917, 
185, 3078981524, 7.118457794189453, -88.0435562133789, -100.4581298828125, 9.793487548828125, -0.06842099130153656, 0.23809708654880524, 1.1541005373001099, -2.2120580673217773, 0.7058258056640625, 
186, 3078989857, 7.045215606689453, -88.04435729980469, -100.3809585571289, 9.808062553405762, -0.08427025377750397, 0.2693345248699188, 1.0642714500427246, -2.28426456451416, 0.6764463782310486, 
187, 3078998190, 7.043511867523193, -88.04375457763672, -100.37423706054688, 9.802066802978516, -0.07586763799190521, 0.24562937021255493, 1.1570461988449097, -2.1230485439300537, 0.5266286730766296, 
188, 3079006523, 6.975381374359131, -88.04476165771484, -100.30076599121094, 9.831217765808105, -0.10057772696018219, 0.2871708571910858, 1.1336092948913574, -2.2255055904388428, 0.6507041454315186, 
189, 3079014856, 6.953061580657959, -88.04425048828125, -100.27383422851562, 9.818042755126953, -0.1071295291185379, 0.28370556235313416, 1.1351460218429565, -2.1407735347747803, 0.612385094165802, 
190, 3079023189, 6.876054286956787, -88.04515838623047, -100.19227600097656, 9.817225456237793, -0.08011900633573532, 0.2737378776073456, 1.100515604019165, -2.2420780658721924, 0.6867945194244385, 
191, 3079031522, 6.860235214233398, -88.04685974121094, -100.17192077636719, 9.81103515625, -0.09064468741416931, 0.25972816348075867, 1.1376562118530273, -2.4414079189300537, 0.621990442276001, 
192, 3079039855, 6.811130523681641, -88.04736328125, -100.11801147460938, 9.793326377868652, -0.08553235977888107, 0.2592789828777313, 1.1346850395202637, -2.1982266902923584, 0.5674577951431274, 
193, 3079048188, 6.806469440460205, -88.04776763916016, -100.10813903808594, 9.817147254943848, -0.06085474416613579, 0.27193593978881836, 1.1585062742233276, -2.2469446659088135, 0.5532162189483643, 
194, 3079056521, 6.753605365753174, -88.04976654052734, -100.05071258544922, 9.817455291748047, -0.11609109491109848, 0.2843911945819855, 1.069496750831604, -2.3759889602661133, 0.6041116714477539, 
195, 3079064854, 6.744225978851318, -88.05077362060547, -100.03704071044922, 9.769803047180176, -0.08022776991128922, 0.28011298179626465, 1.1130025386810303, -2.3625032901763916, 0.5847345590591431, 
196, 3079073187, 6.710351943969727, -88.05298614501953, -99.99791717529297, 9.847639083862305, -0.0887206569314003, 0.2705690562725067, 1.1058690547943115, -2.34842848777771, 0.5217875838279724, 
197, 3079081520, 6.719359397888184, -88.05258178710938, -100.00279235839844, 9.799357414245605, -0.07754972577095032, 0.23961500823497772, 1.0766175985336304, -2.1906189918518066, 0.488309770822525, 
198, 3079089853, 6.690608978271484, -88.05398559570312, -99.96923828125, 9.79808521270752, -0.07477863878011703, 0.26083624362945557, 1.0773861408233643, -2.2851099967956543, 0.4936631917953491, 
199, 3079098186, 6.691684722900391, -88.05499267578125, -99.96658325195312, 9.812366485595703, -0.07583167403936386, 0.24906577169895172, 1.0719046592712402, -2.3832380771636963, 0.5417155027389526, 
200, 3079106519, 6.654746055603027, -88.05741119384766, -99.9244384765625, 9.827880859375, -0.0978550985455513, 0.3094339668750763, 1.1031025648117065, -2.3851590156555176, 0.5407932996749878, 
201, 3079114852, 6.67296028137207, -88.05821228027344, -99.93870544433594, 9.795812606811523, -0.06312043964862823, 0.28047409653663635, 1.046571969985962, -2.311748743057251, 0.4622344374656677, 
202, 3079123185, 6.645501136779785, -88.05982971191406, -99.90668487548828, 9.828868865966797, -0.062705397605896, 0.25705671310424805, 1.105279803276062, -2.3589046001434326, 0.49768462777137756, 
203, 3079131518, 6.634313583374023, -88.06053924560547, -99.89028930664062, 9.807950019836426, -0.08697565644979477, 0.2313358634710312, 1.1720560789108276, -2.263824701309204, 0.5824164748191833, 
204, 3079139851, 6.594639301300049, -88.06114196777344, -99.8460464477539, 9.782039642333984, -0.058290764689445496, 0.286573201417923, 1.093932867050171, -2.236776113510132, 0.5339031219482422, 
205, 3079148184, 6.591419219970703, -88.06063079833984, -99.83847045898438, 9.803550720214844, -0.09207861125469208, 0.2632615864276886, 1.1180356740951538, -2.196843385696411, 0.541023850440979, 
206, 3079156517, 6.54296350479126, -88.06104278564453, -99.78575897216797, 9.798349380493164, -0.06710995733737946, 0.27054426074028015, 1.0406807661056519, -2.1926937103271484, 0.5618482232093811, 
207, 3079164850, 6.5397467613220215, -88.0617446899414, -99.77794647216797, 9.843976974487305, -0.07762680947780609, 0.31265023350715637, 1.092600703239441, -2.2665395736694336, 0.5470175743103027, 
208, 3079173183, 6.520605564117432, -88.06224822998047, -99.75345611572266, 9.828184127807617, -0.08690114319324493, 0.27503514289855957, 1.1876039505004883, -2.205782413482666, 0.4493761360645294, 
209, 3079181516, 6.544631004333496, -88.06083679199219, -99.77336120605469, 9.81397533416748, -0.0747821033000946, 0.27533093094825745, 1.088144063949585, -2.0893659591674805, 0.41602641344070435, 
210, 3079189849, 6.540920257568359, -88.06245422363281, -99.76519775390625, 9.792231559753418, -0.07243473827838898, 0.24028098583221436, 1.0669866800308228, -2.3506312370300293, 0.3996333181858063, 
211, 3079198182, 6.55788516998291, -88.06387329101562, -99.7783203125, 9.803399085998535, -0.07530349493026733, 0.25882208347320557, 1.0261318683624268, -2.406649589538574, 0.4775262176990509, 
212, 3079206515, 6.561148643493652, -88.06629180908203, -99.7772445678711, 9.82082748413086, -0.06561887264251709, 0.28185948729515076, 1.028232216835022, -2.4140267372131348, 0.37688788771629333, 
213, 3079214848, 6.562087059020996, -88.06629180908203, -99.77351379394531, 9.803120613098145, -0.0681791678071022, 0.2715008556842804, 1.1619898080825806, -2.253450870513916, 0.531059980392456, 
214, 3079223181, 6.531586170196533, -88.06771850585938, -99.73832702636719, 9.831520080566406, -0.09035299718379974, 0.29593420028686523, 1.0663206577301025, -2.301144599914551, 0.5032684803009033, 
215, 3079231514, 6.563129901885986, -88.06791687011719, -99.76448822021484, 9.806758880615234, -0.08201219886541367, 0.3012283444404602, 1.2400875091552734, -2.2516064643859863, 0.40795788168907166, 
216, 3079239847, 6.562833309173584, -88.06791687011719, -99.75945281982422, 9.775568008422852, -0.05175228416919708, 0.24280941486358643, 1.0751575231552124, -2.1328842639923096, 0.3622877299785614, 
217, 3079248180, 6.574092864990234, -88.068115234375, -99.76636505126953, 9.864017486572266, -0.05524727702140808, 0.24544653296470642, 1.1155256032943726, -2.2965595722198486, 0.4921518862247467, 
218, 3079256513, 6.5608601570129395, -88.0687255859375, -99.74784088134766, 9.798662185668945, -0.08899000287055969, 0.2619728744029999, 1.1826860904693604, -2.2302186489105225, 0.4304472506046295, 
219, 3079264846, 6.560714244842529, -88.06832122802734, -99.74309539794922, 9.847734451293945, -0.07746864855289459, 0.2809551954269409, 1.144520878791809, -2.202094316482544, 0.5287033915519714, 
220, 3079273179, 6.5129852294921875, -88.06903076171875, -99.69047546386719, 9.823022842407227, -0.09499455988407135, 0.29115840792655945, 1.085096001625061, -2.176736354827881, 0.5597734451293945, 
221, 3079281512, 6.530161380767822, -88.068115234375, -99.70297241210938, 9.817319869995117, -0.09224937111139297, 0.2563757300376892, 1.1417033672332764, -2.1450514793395996, 0.4527828097343445, 
222, 3079289845, 6.494058132171631, -88.06903076171875, -99.66192626953125, 9.78438949584961, -0.07748570293188095, 0.2796474099159241, 1.0983127355575562, -2.211238384246826, 0.5178685784339905, 
223, 3079298178, 6.482853412628174, -88.06954193115234, -99.64683532714844, 9.830938339233398, -0.06794756650924683, 0.26977211236953735, 1.0661157369613647, -2.2849817276000977, 0.5804953575134277, 
224, 3079306511, 6.440312385559082, -88.06954193115234, -99.59868621826172, 9.789557456970215, -0.0666399598121643, 0.2529882490634918, 1.202690839767456, -2.1675662994384766, 0.5427656769752502, 
225, 3079314844, 6.436883449554443, -88.06974029541016, -99.59007263183594, 9.82120418548584, -0.09812251478433609, 0.28124508261680603, 1.1814310550689697, -2.242513418197632, 0.5481958985328674, 
226, 3079323177, 6.3942131996154785, -88.07136535644531, -99.54247283935547, 9.80357837677002, -0.06705555319786072, 0.2646281123161316, 1.1139118671417236, -2.3300116062164307, 0.5602090358734131, 
227, 3079331510, 6.387375354766846, -88.07115936279297, -99.53071594238281, 9.830808639526367, -0.08008714765310287, 0.2651177942752838, 1.133020043373108, -2.1696410179138184, 0.5507316589355469, 
228, 3079339843, 6.341207027435303, -88.07115936279297, -99.47991943359375, 9.778909683227539, -0.07989919930696487, 0.27360954880714417, 1.1070728302001953, -2.16515851020813, 0.5559826493263245, 
229, 3079348176, 6.331142902374268, -88.07146453857422, -99.46530151367188, 9.79592227935791, -0.08468208461999893, 0.25315332412719727, 1.1203409433364868, -2.2532968521118164, 0.5742710828781128, 
230, 3079356509, 6.290365695953369, -88.07176971435547, -99.41981506347656, 9.840499877929688, -0.07367976009845734, 0.2540340721607208, 1.0819196701049805, -2.187391757965088, 0.5345178842544556, 
231, 3079364842, 6.276087284088135, -88.07115936279297, -99.40076446533203, 9.828875541687012, -0.08673857897520065, 0.24723926186561584, 1.1451869010925293, -2.114032506942749, 0.576397180557251, 
232, 3079373175, 6.236029624938965, -88.07167053222656, -99.35574340820312, 9.791866302490234, -0.07810630649328232, 0.2534506022930145, 1.1764106750488281, -2.2506587505340576, 0.5427400469779968, 
233, 3079381508, 6.225956916809082, -88.07196807861328, -99.3407211303711, 9.830914497375488, -0.08025850355625153, 0.25490209460258484, 1.1511805057525635, -2.257523536682129, 0.575372576713562, 
234, 3079389841, 6.20037841796875, -88.0739974975586, -99.31087493896484, 9.8097505569458, -0.07075535506010056, 0.24675807356834412, 1.0246974229812622, -2.3718910217285156, 0.4921519458293915, 
235, 3079398174, 6.200817108154297, -88.07299041748047, -99.30635833740234, 9.814595222473145, -0.06308087706565857, 0.2594568133354187, 1.1657551527023315, -2.105093240737915, 0.516075611114502, 
236, 3079406507, 6.158911228179932, -88.07299041748047, -99.25968170166016, 9.760814666748047, -0.07209384441375732, 0.2871410548686981, 1.0990556478500366, -2.1571412086486816, 0.5388211011886597, 
237, 3079414840, 6.149911880493164, -88.0739974975586, -99.24661254882812, 9.818572044372559, -0.04315914586186409, 0.27117419242858887, 1.0580470561981201, -2.321046829223633, 0.5741943120956421, 
238, 3079423173, 6.102651119232178, -88.07501983642578, -99.19518280029297, 9.792798042297363, -0.07473742216825485, 0.2588314712047577, 1.0095081329345703, -2.2373647689819336, 0.565280556678772, 
239, 3079431506, 6.093700408935547, -88.07572937011719, -99.18199920654297, 9.778463363647461, -0.06529675424098969, 0.2511337697505951, 1.0733646154403687, -2.3089826107025146, 0.5719659328460693, 
240, 3079439839, 6.0401506423950195, -88.07644653320312, -99.12398529052734, 9.812541007995605, -0.08379058539867401, 0.27366551756858826, 1.0845835208892822, -2.245049238204956, 0.5947625041007996, 
241, 3079448172, 6.021768569946289, -88.07624053955078, -99.10160064697266, 9.818502426147461, -0.08115027099847794, 0.28314319252967834, 1.0570482015609741, -2.1783499717712402, 0.596145749092102, 
242, 3079456505, 5.986332893371582, -88.07654571533203, -99.06182861328125, 9.803223609924316, -0.05333719030022621, 0.27906563878059387, 1.074568510055542, -2.190004348754883, 0.5151278972625732, 
243, 3079464838, 5.995153903961182, -88.0758285522461, -99.06542205810547, 9.814865112304688, -0.12023825943470001, 0.2652386426925659, 1.167368769645691, -2.118720054626465, 0.48457011580467224, 
244, 3079473171, 5.975728988647461, -88.07685089111328, -99.04084777832031, 9.816062927246094, -0.06086694449186325, 0.23744340240955353, 1.186425805091858, -2.303424119949341, 0.46584606170654297, 
245, 3079481504, 5.965275764465332, -88.0770492553711, -99.02598571777344, 9.806455612182617, -0.061784692108631134, 0.26716864109039307, 1.084609031677246, -2.1960747241973877, 0.5670478940010071, 
246, 3079489837, 5.918765544891357, -88.07766723632812, -98.97441101074219, 9.83505916595459, -0.09884938597679138, 0.288542240858078, 1.1368111371994019, -2.236186981201172, 0.5686873197555542, 
247, 3079498170, 5.9172587394714355, -88.07776641845703, -98.96763610839844, 9.79859733581543, -0.07717221230268478, 0.2618524134159088, 1.208889365196228, -2.24271821975708, 0.5400505065917969, 
248, 3079506503, 5.858737468719482, -88.0788803100586, -98.90412902832031, 9.815654754638672, -0.06297819316387177, 0.2789006531238556, 1.1265395879745483, -2.261288642883301, 0.6177384853363037, 
249, 3079514836, 5.84682559967041, -88.07786560058594, -98.88761138916016, 9.825785636901855, -0.06938913464546204, 0.24313753843307495, 1.1205971240997314, -2.089263439178467, 0.5649475455284119, 
250, 3079523169, 5.824907302856445, -88.07868194580078, -98.86101531982422, 9.799793243408203, -0.08295886218547821, 0.25188881158828735, 1.1003363132476807, -2.2498135566711426, 0.4678952991962433, 
251, 3079531502, 5.826861381530762, -88.07848358154297, -98.85857391357422, 9.82136344909668, -0.0856797844171524, 0.2873525619506836, 1.0902186632156372, -2.199225425720215, 0.5175100564956665, 
252, 3079539835, 5.812922477722168, -88.07878875732422, -98.84009552001953, 9.82153606414795, -0.06747846305370331, 0.27450546622276306, 1.0985689163208008, -2.220228910446167, 0.4336746037006378, 
253, 3079548168, 5.8506293296813965, -88.0788803100586, -98.8742446899414, 9.812137603759766, -0.07122119516134262, 0.27504411339759827, 1.0254403352737427, -2.266488552093506, 0.378424733877182, 
254, 3079556501, 5.830409526824951, -88.07878875732422, -98.84954833984375, 9.780355453491211, -0.09506657719612122, 0.2660907506942749, 1.040527105331421, -2.1093194484710693, 0.4448680877685547, 
255, 3079564834, 5.8232574462890625, -88.07908630371094, -98.83755493164062, 9.849431037902832, -0.0870971828699112, 0.29315781593322754, 1.141344666481018, -2.2500693798065186, 0.5617713928222656, 
256, 3079573167, 5.814325332641602, -88.07991027832031, -98.82423400878906, 9.809553146362305, -0.06478434056043625, 0.33031773567199707, 1.0812536478042603, -2.2640292644500732, 0.4172302484512329, 
257, 3079581500, 5.832935333251953, -88.08041381835938, -98.83851623535156, 9.810091972351074, -0.089059017598629, 0.29534244537353516, 1.0942400693893433, -2.306318521499634, 0.46226006746292114, 
258, 3079589833, 5.79296875, -88.08255767822266, -98.79415893554688, 9.796749114990234, -0.06197427585721016, 0.22613680362701416, 1.0436007976531982, -2.372864246368408, 0.5533699989318848, 
259, 3079598166, 5.756721496582031, -88.08296966552734, -98.75361633300781, 9.837668418884277, -0.06043407320976257, 0.21802286803722382, 1.070060133934021, -2.2569596767425537, 0.6766768097877502, 
260, 3079606499, 5.6816840171813965, -88.0833740234375, -98.67363739013672, 9.782970428466797, -0.061533041298389435, 0.2668061852455139, 1.1286144256591797, -2.1914641857147217, 0.6792638897895813, 
261, 3079614832, 5.639021396636963, -88.08296966552734, -98.62622833251953, 9.808660507202148, -0.07045484334230423, 0.298373818397522, 1.1425485610961914, -2.145845413208008, 0.6932492852210999, 
262, 3079623165, 5.576868057250977, -88.0833740234375, -98.55886840820312, 9.793681144714355, -0.05257972329854965, 0.28396257758140564, 1.1479787826538086, -2.2028884887695312, 0.6286758780479431, 
263, 3079631498, 5.54986572265625, -88.08480834960938, -98.52750396728516, 9.779561996459961, -0.09524958580732346, 0.2532999515533447, 1.0960332155227661, -2.369252920150757, 0.6528812646865845, 
264, 3079639831, 5.497079372406006, -88.08460235595703, -98.46975708007812, 9.832422256469727, -0.08832520991563797, 0.2556895315647125, 1.1492339372634888, -2.134549617767334, 0.5840558409690857, 
265, 3079648164, 5.508253574371338, -88.08490753173828, -98.47651672363281, 9.823019981384277, -0.0758388489484787, 0.26223090291023254, 1.113092303276062, -2.2905147075653076, 0.49125537276268005, 
266, 3079656497, 5.477324485778809, -88.08572387695312, -98.44007873535156, 9.7999267578125, -0.0670824870467186, 0.28083500266075134, 1.1661903858184814, -2.2166683673858643, 0.5042674541473389, 
267, 3079664830, 5.491293907165527, -88.08663940429688, -98.44987487792969, 9.811257362365723, -0.08889682590961456, 0.2853885293006897, 1.0732364654541016, -2.3309082984924316, 0.48290520906448364, 
268, 3079673163, 5.463306903839111, -88.08746337890625, -98.41744995117188, 9.794121742248535, -0.08282361924648285, 0.2578318417072296, 1.070623755455017, -2.268435001373291, 0.4955841898918152, 
269, 3079681496, 5.47190523147583, -88.08705139160156, -98.42147064208984, 9.813825607299805, -0.07166612148284912, 0.28711649775505066, 1.118394374847412, -2.1759166717529297, 0.48938557505607605, 
270, 3079689829, 5.453647613525391, -88.08818054199219, -98.39765167236328, 9.852864265441895, -0.07775235176086426, 0.2891767919063568, 1.1806881427764893, -2.2932043075561523, 0.46238818764686584, 
271, 3079698162, 5.460140705108643, -88.08746337890625, -98.39945983886719, 9.800653457641602, -0.05981210991740227, 0.25929078459739685, 1.1466212272644043, -2.120897054672241, 0.4942266345024109, 
272, 3079706495, 5.4312286376953125, -88.08848571777344, -98.36530303955078, 9.812651634216309, -0.062011271715164185, 0.25030872225761414, 1.151590347290039, -2.275914430618286, 0.5029611587524414, 
273, 3079714828, 5.439046382904053, -88.08879089355469, -98.36840057373047, 9.776813507080078, -0.05507498234510422, 0.27077561616897583, 1.1293827295303345, -2.2586758136749268, 0.5014498829841614, 
274, 3079723161, 5.390115261077881, -88.09074401855469, -98.3134994506836, 9.840838432312012, -0.09410525858402252, 0.24394245445728302, 1.2456459999084473, -2.36971378326416, 0.5957614779472351, 
275, 3079731494, 5.392594337463379, -88.09012603759766, -98.31045532226562, 9.797961235046387, -0.0858631357550621, 0.2549813687801361, 1.239344835281372, -2.161418914794922, 0.5173563957214355, 
276, 3079739827, 5.337917804718018, -88.09074401855469, -98.25090026855469, 9.802658081054688, -0.08959130942821503, 0.29172492027282715, 1.1261811256408691, -2.2351622581481934, 0.6031896471977234, 
277, 3079748160, 5.332034111022949, -88.09104919433594, -98.2400131225586, 9.823760032653809, -0.07273790240287781, 0.248886838555336, 1.1687263250350952, -2.2445881366729736, 0.5554190278053284, 
278, 3079756493, 5.303735256195068, -88.09135437011719, -98.20675659179688, 9.844862937927246, -0.0700049176812172, 0.24793051183223724, 1.1484142541885376, -2.198021650314331, 0.4937400221824646, 
279, 3079764826, 5.339676380157471, -88.09114837646484, -98.23821258544922, 9.774022102355957, -0.09073414653539658, 0.2500467598438263, 1.1372720003128052, -2.238158941268921, 0.38754338026046753, 
280, 3079773159, 5.332919120788574, -88.0909423828125, -98.22703552246094, 9.80759048461914, -0.06318206340074539, 0.2853900194168091, 1.0673195123672485, -2.1360604763031006, 0.39750728011131287, 
281, 3079781492, 5.365561485290527, -88.09156036376953, -98.25505828857422, 9.825166702270508, -0.06995892524719238, 0.2670326828956604, 1.1245417594909668, -2.2882091999053955, 0.4043463170528412, 
282, 3079789825, 5.330499649047852, -88.09156036376953, -98.21558380126953, 9.813353538513184, -0.07688048481941223, 0.2834315896034241, 1.0528987646102905, -2.1488680839538574, 0.5122847557067871, 
283, 3079798158, 5.334794044494629, -88.0909423828125, -98.21565246582031, 9.80058765411377, -0.07461325824260712, 0.25113266706466675, 1.089424729347229, -2.146101713180542, 0.5047029256820679, 
284, 3079806491, 5.297196865081787, -88.09135437011719, -98.17293548583984, 9.85483169555664, -0.06676726043224335, 0.2758656144142151, 1.1159354448318481, -2.1940512657165527, 0.5300865769386292, 
285, 3079814824, 5.272780895233154, -88.09074401855469, -98.14442443847656, 9.82199764251709, -0.06395217031240463, 0.27848681807518005, 1.0812280178070068, -2.1493031978607178, 0.6202486157417297, 
286, 3079823157, 5.225831508636475, -88.08971405029297, -98.09197235107422, 9.793688774108887, -0.08517966419458389, 0.28309059143066406, 1.1603504419326782, -1.9988194704055786, 0.5517818331718445, 
287, 3079831490, 5.222203254699707, -88.08869171142578, -98.08430480957031, 9.78654670715332, -0.08915556967258453, 0.23885312676429749, 1.0829954147338867, -2.1315269470214844, 0.5338519215583801, 
288, 3079839823, 5.188172340393066, -88.08889770507812, -98.044677734375, 9.845203399658203, -0.036703940480947495, 0.23079094290733337, 1.2171883583068848, -2.1875710487365723, 0.5196359753608704, 
289, 3079848156, 5.155468463897705, -88.08879089355469, -98.0079116821289, 9.798881530761719, -0.06258900463581085, 0.2840064465999603, 1.0800243616104126, -2.213031768798828, 0.6589518189430237, 
290, 3079856489, 5.093839645385742, -88.08879089355469, -97.94174194335938, 9.843151092529297, -0.08825898170471191, 0.2826773524284363, 1.0323817729949951, -2.1174392700195312, 0.6187631487846375, 
291, 3079864822, 5.094438552856445, -88.0882797241211, -97.9378662109375, 9.788457870483398, -0.08281265199184418, 0.2801937162876129, 1.1360937356948853, -2.1810648441314697, 0.5231195092201233, 
292, 3079873155, 5.040872097015381, -88.08787536621094, -97.87928009033203, 9.842979431152344, -0.06764882802963257, 0.28166913986206055, 1.1090964078903198, -2.0545051097869873, 0.5821859836578369, 
293, 3079881488, 5.056087493896484, -88.08869171142578, -97.89051818847656, 9.804238319396973, -0.09020502120256424, 0.2155056744813919, 1.0238267183303833, -2.3150532245635986, 0.4726082682609558, 
294, 3079889821, 5.021120548248291, -88.08879089355469, -97.85161590576172, 9.81344223022461, -0.06740796566009521, 0.2501547932624817, 0.9983916878700256, -2.1780426502227783, 0.5162805318832397, 
295, 3079898154, 5.037569046020508, -88.0882797241211, -97.86454772949219, 9.819663047790527, -0.07871779054403305, 0.2897491157054901, 1.0202661752700806, -2.1767873764038086, 0.4569579064846039, 
296, 3079906487, 5.001770973205566, -88.08838653564453, -97.82461547851562, 9.80675220489502, -0.08771121501922607, 0.2932443916797638, 1.0652447938919067, -2.196331024169922, 0.5247588753700256, 
297, 3079914820, 4.99853515625, -88.08869171142578, -97.81720733642578, 9.828080177307129, -0.08508937060832977, 0.24341168999671936, 1.0832773447036743, -2.2754790782928467, 0.5449172258377075, 
298, 3079923153, 4.9763665199279785, -88.0898208618164, -97.79070281982422, 9.798074722290039, -0.07935231178998947, 0.23267771303653717, 1.0412441492080688, -2.2858526706695557, 0.4766552746295929, 
299, 3079931486, 4.943209648132324, -88.09063720703125, -97.75362396240234, 9.805441856384277, -0.09375716000795364, 0.24394115805625916, 1.0315364599227905, -2.3073432445526123, 0.6670458912849426, 
300, 3079939819, 4.885600566864014, -88.09176635742188, -97.69103240966797, 9.832354545593262, -0.07037054747343063, 0.2797277569770813, 1.1400383710861206, -2.2827792167663574, 0.6216062903404236, 
301, 3079948152, 4.871309757232666, -88.0928955078125, -97.67237091064453, 9.791277885437012, -0.07400981336832047, 0.2976294159889221, 1.1043063402175903, -2.372684955596924, 0.5980411171913147, 
302, 3079956485, 4.814927577972412, -88.0948486328125, -97.61072540283203, 9.804598808288574, -0.08776746690273285, 0.264238566160202, 1.1251308917999268, -2.349299192428589, 0.6212476491928101, 
303, 3079964818, 4.756805896759033, -88.09607696533203, -97.54788208007812, 9.831498146057129, -0.05927348509430885, 0.2410595864057541, 1.1061378717422485, -2.3019766807556152, 0.7683886885643005, 
304, 3079973151, 4.686914443969727, -88.09751892089844, -97.47320556640625, 9.780485153198242, -0.07966893911361694, 0.29978540539741516, 1.0934972763061523, -2.3115694522857666, 0.670555055141449, 
305, 3079981484, 4.6860809326171875, -88.09906005859375, -97.46774291992188, 9.788285255432129, -0.08321015536785126, 0.2777487337589264, 1.1247466802597046, -2.412745475769043, 0.5481190085411072, 
306, 3079989817, 4.629849433898926, -88.1001968383789, -97.40711975097656, 9.827662467956543, -0.06182112917304039, 0.26071953773498535, 1.0412698984146118, -2.2620317935943604, 0.6098237633705139, 
307, 3079998150, 4.636445999145508, -88.10039520263672, -97.40943145751953, 9.832509994506836, -0.07610006630420685, 0.2539089322090149, 1.0828417539596558, -2.255192518234253, 0.5034477710723877, 
308, 3080006483, 4.611363887786865, -88.1001968383789, -97.37969207763672, 9.809240341186523, -0.06261385977268219, 0.2297622412443161, 1.1131434440612793, -2.1597797870635986, 0.4813171327114105, 
309, 3080014816, 4.596328258514404, -88.10050201416016, -97.36006164550781, 9.796069145202637, -0.09033982455730438, 0.2802724540233612, 1.1075594425201416, -2.265540361404419, 0.5926622152328491, 
310, 3080023149, 4.603963851928711, -88.10060119628906, -97.36254119873047, 9.778702735900879, -0.08374739438295364, 0.27419716119766235, 1.1949809789657593, -2.1972529888153076, 0.3554999828338623, 
311, 3080031482, 4.593257904052734, -88.10039520263672, -97.34666442871094, 9.84168529510498, -0.06919114291667938, 0.29495739936828613, 1.179868459701538, -2.1954855918884277, 0.5715304613113403, 
312, 3080039815, 4.5420708656311035, -88.10153198242188, -97.29042053222656, 9.795711517333984, -0.09335591644048691, 0.2259448915719986, 1.1379380226135254, -2.2824206352233887, 0.5955309271812439, 
313, 3080048148, 4.550280570983887, -88.10205078125, -97.29399108886719, 9.827999114990234, -0.08544313907623291, 0.28542569279670715, 1.1242856979370117, -2.284085512161255, 0.5023207664489746, 
314, 3080056481, 4.520444869995117, -88.10173797607422, -97.2596435546875, 9.818532943725586, -0.09351892024278641, 0.23805034160614014, 1.0743122100830078, -2.137085437774658, 0.4967624843120575, 
315, 3080064814, 4.509640216827393, -88.10009002685547, -97.24403381347656, 9.820091247558594, -0.06657294183969498, 0.28261247277259827, 1.155227541923523, -2.026278257369995, 0.5571352243423462, 
316, 3080073147, 4.486671447753906, -88.1001968383789, -97.21651458740234, 9.797249794006348, -0.10623496025800705, 0.26899802684783936, 1.0666793584823608, -2.16515851020813, 0.4725057780742645, 
317, 3080081480, 4.496835708618164, -88.09957885742188, -97.22238159179688, 9.806707382202148, -0.08539341390132904, 0.27979689836502075, 1.114116907119751, -2.153324842453003, 0.48185500502586365, 
318, 3080089813, 4.457294464111328, -88.09978485107422, -97.17687225341797, 9.810264587402344, -0.08412053436040878, 0.21957480907440186, 1.1756677627563477, -2.1383917331695557, 0.5418179631233215, 
319, 3080098146, 4.448396682739258, -88.09915924072266, -97.16241455078125, 9.817296981811523, -0.07473668456077576, 0.2759087085723877, 1.2688268423080444, -2.180424690246582, 0.5647170543670654, 
320, 3080106479, 4.427064895629883, -88.10102081298828, -97.13623046875, 9.804513931274414, -0.08966562896966934, 0.26824986934661865, 1.136017084121704, -2.3727619647979736, 0.4853897988796234, 
321, 3080114812, 4.430637359619141, -88.10122680664062, -97.13581085205078, 9.787421226501465, -0.05720457062125206, 0.26865240931510925, 1.0643737316131592, -2.2810113430023193, 0.5174331665039062, 
322, 3080123145, 4.419212818145752, -88.10266876220703, -97.11919403076172, 9.803020477294922, -0.07054793834686279, 0.2627145051956177, 1.1217753887176514, -2.3127989768981934, 0.4408722519874573, 
323, 3080131478, 4.407882213592529, -88.10318756103516, -97.10420227050781, 9.7946138381958, -0.09882237017154694, 0.2117810696363449, 1.0530524253845215, -2.316077470779419, 0.5785743594169617, 
324, 3080139811, 4.403569221496582, -88.10452270507812, -97.0949478149414, 9.801401138305664, -0.06672603636980057, 0.2820568084716797, 1.0809975862503052, -2.264362335205078, 0.40621617436408997, 
325, 3080148144, 4.42648458480835, -88.1053466796875, -97.1139907836914, 9.850711822509766, -0.08423920720815659, 0.27501925826072693, 1.0276687145233154, -2.3301398754119873, 0.4440996050834656, 
326, 3080156477, 4.422052383422852, -88.10700225830078, -97.10401153564453, 9.80115795135498, -0.08048426359891891, 0.2572007477283478, 1.2034848928451538, -2.367152452468872, 0.41897204518318176, 
327, 3080164810, 4.433681011199951, -88.10834503173828, -97.11150360107422, 9.828218460083008, -0.07279781252145767, 0.2591533958911896, 1.0900650024414062, -2.4013473987579346, 0.4954049289226532, 
328, 3080173143, 4.390315055847168, -88.10958862304688, -97.0634536743164, 9.803215026855469, -0.06893143057823181, 0.26987358927726746, 1.0713154077529907, -2.282318115234375, 0.5633338689804077, 
329, 3080181476, 4.404922962188721, -88.10979461669922, -97.07392883300781, 9.8026704788208, -0.050193119794130325, 0.2634563148021698, 1.076873779296875, -2.269357204437256, 0.4729156196117401, 
330, 3080189809, 4.386653900146484, -88.1109390258789, -97.05160522460938, 9.850034713745117, -0.09030995517969131, 0.3005850613117218, 1.0141189098358154, -2.282395124435425, 0.4624137878417969, 
331, 3080198142, 4.384742736816406, -88.11155700683594, -97.04539489746094, 9.768150329589844, -0.06490039080381393, 0.27240243554115295, 1.1091219186782837, -2.329345464706421, 0.5453014373779297, 
332, 3080206475, 4.356265068054199, -88.11270141601562, -97.01210021972656, 9.84022045135498, -0.08144158124923706, 0.2466605007648468, 1.1126823425292969, -2.2922048568725586, 0.5062653422355652, 
333, 3080214808, 4.357846736907959, -88.1122817993164, -97.00935363769531, 9.834721565246582, -0.08533622324466705, 0.2546098530292511, 1.0957515239715576, -2.183088541030884, 0.5196872353553772, 
334, 3080223141, 4.354025363922119, -88.11353302001953, -97.0011978149414, 9.772815704345703, -0.07073985785245895, 0.25754180550575256, 1.037017822265625, -2.283111810684204, 0.4054220914840698, 
335, 3080231474, 4.366418838500977, -88.11373901367188, -97.00960540771484, 9.834678649902344, -0.07200701534748077, 0.2021646350622177, 1.054076910018921, -2.2662322521209717, 0.4804462492465973, 
336, 3080239807, 4.339800834655762, -88.11383819580078, -96.97872161865234, 9.802901268005371, -0.08516870439052582, 0.22582677006721497, 1.0516692399978638, -2.1722280979156494, 0.4880792796611786, 
337, 3080248140, 4.34872579574585, -88.11456298828125, -96.98361206054688, 9.80932331085205, -0.05629818141460419, 0.2669994831085205, 1.0715970993041992, -2.3306522369384766, 0.5007838606834412, 
338, 3080256473, 4.317272186279297, -88.11675262451172, -96.94696807861328, 9.805246353149414, -0.0653756782412529, 0.27421531081199646, 1.1456222534179688, -2.4079813957214355, 0.529113233089447, 
339, 3080264806, 4.340092182159424, -88.118408203125, -96.96513366699219, 9.808538436889648, -0.09722781926393509, 0.2418905794620514, 1.115115761756897, -2.4138472080230713, 0.4533207416534424, 
340, 3080273139, 4.317802906036377, -88.1190414428711, -96.93798065185547, 9.807903289794922, -0.05076442286372185, 0.24203337728977203, 1.1309709548950195, -2.2764267921447754, 0.4816757142543793, 
341, 3080281472, 4.339324474334717, -88.11882781982422, -96.95569610595703, 9.830592155456543, -0.08022454380989075, 0.27928122878074646, 1.027540683746338, -2.209266424179077, 0.4401293992996216, 
342, 3080289805, 4.29879093170166, -88.12007904052734, -96.91104125976562, 9.758009910583496, -0.06840939819812775, 0.26953747868537903, 1.062888264656067, -2.3231470584869385, 0.5550861358642578, 
343, 3080298138, 4.305897235870361, -88.12112426757812, -96.91378021240234, 9.84876823425293, -0.0731642097234726, 0.29957616329193115, 1.073262095451355, -2.304807186126709, 0.5052408576011658, 
344, 3080306471, 4.268067836761475, -88.12112426757812, -96.87158203125, 9.824216842651367, -0.06872536987066269, 0.2695446014404297, 1.0845578908920288, -2.206141233444214, 0.5373098850250244, 
345, 3080314804, 4.258350849151611, -88.12152862548828, -96.85770416259766, 9.803284645080566, -0.07033979147672653, 0.2609182596206665, 1.0781288146972656, -2.268486499786377, 0.5698398947715759, 
346, 3080323137, 4.212238311767578, -88.12216186523438, -96.80636596679688, 9.823817253112793, -0.0829492062330246, 0.2448028028011322, 1.1138094663619995, -2.2004294395446777, 0.5705314874649048, 
347, 3080331470, 4.198432922363281, -88.12299346923828, -96.78836059570312, 9.796136856079102, -0.07000520080327988, 0.2548089623451233, 1.100413203239441, -2.329627513885498, 0.5896653532981873, 
348, 3080339803, 4.159745216369629, -88.12288665771484, -96.7450942993164, 9.783931732177734, -0.06386019289493561, 0.2728945314884186, 1.066474437713623, -2.159087896347046, 0.5391284227371216, 
349, 3080348136, 4.119894504547119, -88.12309265136719, -96.70095825195312, 9.791808128356934, -0.07776854187250137, 0.24333027005195618, 1.0849933624267578, -2.20788311958313, 0.6820814609527588, 
350, 3080356469, 4.061794757843018, -88.12466430664062, -96.6371841430664, 9.790377616882324, -0.09953151643276215, 0.2622334957122803, 1.1607602834701538, -2.3237617015838623, 0.6290343999862671, 
351, 3080364802, 4.042221546173096, -88.12445068359375, -96.61282348632812, 9.816433906555176, -0.10460690408945084, 0.24310491979122162, 1.1698788404464722, -2.230346918106079, 0.6080819964408875, 
352, 3080373135, 4.00228214263916, -88.12445068359375, -96.56806945800781, 9.818623542785645, -0.08347970992326736, 0.2760859727859497, 1.1094294786453247, -2.1488420963287354, 0.5426888465881348, 
353, 3080381468, 4.012731075286865, -88.12570190429688, -96.57354736328125, 9.817566871643066, -0.07194340229034424, 0.25335511565208435, 1.1444697380065918, -2.3557286262512207, 0.49717235565185547, 
354, 3080389801, 3.95749568939209, -88.12633514404297, -96.51363372802734, 9.83936882019043, -0.08878351002931595, 0.25491419434547424, 1.0923446416854858, -2.2218940258026123, 0.6087478995323181, 
355, 3080398134, 3.974748373031616, -88.12727355957031, -96.52619171142578, 9.819869041442871, -0.07862786948680878, 0.28560349345207214, 1.1176772117614746, -2.3301656246185303, 0.46815142035484314, 
356, 3080406467, 3.93394136428833, -88.12674713134766, -96.48026275634766, 9.8057279586792, -0.05565516650676727, 0.27800509333610535, 1.1405506134033203, -2.103376865386963, 0.5451990365982056, 
357, 3080414800, 3.930647134780884, -88.12686157226562, -96.47264099121094, 9.839434623718262, -0.06821542978286743, 0.2596406936645508, 1.125540852546692, -2.2449727058410645, 0.5429193377494812, 
358, 3080423133, 3.8918240070343018, -88.1275863647461, -96.42870330810547, 9.796151161193848, -0.07505736500024796, 0.29834359884262085, 1.1135276556015015, -2.216156482696533, 0.5434316396713257, 
359, 3080431466, 3.8615059852600098, -88.12705993652344, -96.3936996459961, 9.809713363647461, -0.09713108092546463, 0.25616317987442017, 1.125105381011963, -2.1621103286743164, 0.6441468000411987, 
360, 3080439799, 3.8071320056915283, -88.12738037109375, -96.33457946777344, 9.810868263244629, -0.07191167771816254, 0.22105517983436584, 1.1073802709579468, -2.202017307281494, 0.6044703722000122, 
361, 3080448132, 3.7923271656036377, -88.12738037109375, -96.31548309326172, 9.810714721679688, -0.07911078631877899, 0.24778936803340912, 1.1117860078811646, -2.222047805786133, 0.585029125213623, 
362, 3080456465, 3.7276782989501953, -88.1275863647461, -96.24571990966797, 9.805010795593262, -0.0672449842095375, 0.29067954421043396, 1.1399102210998535, -2.1793744564056396, 0.6455811858177185, 
363, 3080464798, 3.7227284908294678, -88.12873840332031, -96.23609161376953, 9.796448707580566, -0.05990491807460785, 0.28210169076919556, 1.137758731842041, -2.364027738571167, 0.5575706958770752, 
364, 3080473131, 3.6794002056121826, -88.1290512084961, -96.18787384033203, 9.811846733093262, -0.08248629420995712, 0.2590688169002533, 1.1114016771316528, -2.194000244140625, 0.5609005093574524, 
365, 3080481464, 3.6515045166015625, -88.1290512084961, -96.15548706054688, 9.811420440673828, -0.08507861196994781, 0.24132069945335388, 1.1046139001846313, -2.183344602584839, 0.6337986588478088, 
366, 3080489797, 3.628342866897583, -88.1290512084961, -96.12812805175781, 9.826414108276367, -0.06951393932104111, 0.28329330682754517, 1.0733901262283325, -2.2192814350128174, 0.48341748118400574, 
367, 3080498130, 3.5995430946350098, -88.1290512084961, -96.09447479248047, 9.804951667785645, -0.07032662630081177, 0.2816554009914398, 1.1635266542434692, -2.226274013519287, 0.6436601281166077, 
368, 3080506463, 3.571638822555542, -88.1305160522461, -96.06147766113281, 9.839390754699707, -0.0673288032412529, 0.2617362439632416, 1.1515648365020752, -2.3635408878326416, 0.5126689076423645, 
369, 3080514796, 3.5703139305114746, -88.1319808959961, -96.05523681640625, 9.791314125061035, -0.07864068448543549, 0.24532268941402435, 1.1273337602615356, -2.362285614013672, 0.5418179035186768, 
370, 3080523129, 3.5115792751312256, -88.13260650634766, -95.99139404296875, 9.799936294555664, -0.09292857348918915, 0.27078714966773987, 1.1419851779937744, -2.233855962753296, 0.6248849034309387, 
371, 3080531462, 3.505488872528076, -88.13407897949219, -95.97997283935547, 9.814350128173828, -0.08572515100240707, 0.2776131331920624, 1.198387622833252, -2.3589556217193604, 0.564537763595581, 
372, 3080539795, 3.459340810775757, -88.13554382324219, -95.92893981933594, 9.816607475280762, -0.07565079629421234, 0.2563471794128418, 1.1300488710403442, -2.3958146572113037, 0.5831336379051208, 
373, 3080548128, 3.43493390083313, -88.13638305664062, -95.90108489990234, 9.812612533569336, -0.08580724149942398, 0.2699868381023407, 1.014503002166748, -2.3271687030792236, 0.6268059611320496, 
374, 3080556461, 3.4024007320404053, -88.1372299194336, -95.86314392089844, 9.779842376708984, -0.06267207860946655, 0.24087445437908173, 1.1270519495010376, -2.218820571899414, 0.5221205949783325, 
375, 3080564794, 3.3705689907073975, -88.13870239257812, -95.82691192626953, 9.813796043395996, -0.08440006524324417, 0.258382648229599, 1.1184967756271362, -2.411029577255249, 0.6635879874229431, 
376, 3080573127, 3.318422794342041, -88.13912200927734, -95.769775390625, 9.819855690002441, -0.08042830973863602, 0.2581937909126282, 1.1382964849472046, -2.2339069843292236, 0.5997828841209412, 
377, 3080581460, 3.294489860534668, -88.13912200927734, -95.7414321899414, 9.766193389892578, -0.07901403307914734, 0.2881118357181549, 1.0863510370254517, -2.1953065395355225, 0.6198388934135437, 
378, 3080589793, 3.2330615520477295, -88.14006805419922, -95.67485809326172, 9.809842109680176, -0.10368935018777847, 0.276959627866745, 1.1199568510055542, -2.2593164443969727, 0.6353867053985596, 
379, 3080598126, 3.194991111755371, -88.13954162597656, -95.63253021240234, 9.850373268127441, -0.08230817317962646, 0.21898025274276733, 1.0753624439239502, -2.137315511703491, 0.6705807447433472, 
380, 3080606459, 3.154548168182373, -88.13890838623047, -95.58689880371094, 9.810970306396484, -0.057120226323604584, 0.26851963996887207, 1.178587794303894, -2.1279666423797607, 0.5492205023765564, 
381, 3080614792, 3.1397414207458496, -88.13848876953125, -95.5673828125, 9.820107460021973, -0.09297599643468857, 0.26036831736564636, 1.1462626457214355, -2.183574914932251, 0.5844144225120544, 
382, 3080623125, 3.0991623401641846, -88.13848876953125, -95.52146911621094, 9.828575134277344, -0.08873302489519119, 0.25079023838043213, 1.1476713418960571, -2.141413927078247, 0.5502961874008179, 
383, 3080631458, 3.0846879482269287, -88.13838195800781, -95.50194549560547, 9.783705711364746, -0.08939378708600998, 0.27247464656829834, 1.1810210943222046, -2.218231201171875, 0.5864123106002808, 
384, 3080639791, 3.0495312213897705, -88.13838195800781, -95.46173095703125, 9.807579040527344, -0.07765814661979675, 0.27773162722587585, 1.1049981117248535, -2.142003059387207, 0.5293694138526917, 
385, 3080648124, 3.0626797676086426, -88.13806915283203, -95.4696273803711, 9.822697639465332, -0.08290579169988632, 0.2673795819282532, 1.2106057405471802, -2.187929630279541, 0.4775005578994751, 
386, 3080656457, 3.034996271133423, -88.1372299194336, -95.43614196777344, 9.8413667678833, -0.08399540185928345, 0.2605345845222473, 1.1986949443817139, -2.03411602973938, 0.4955841898918152, 
387, 3080664790, 3.016782760620117, -88.13597106933594, -95.41238403320312, 9.798138618469238, -0.07108039408922195, 0.2582578659057617, 1.27512788772583, -2.1064250469207764, 0.5973496437072754, 
388, 3080673123, 2.968506097793579, -88.1365966796875, -95.35826110839844, 9.809179306030273, -0.06845124810934067, 0.2772602438926697, 1.1648584604263306, -2.190516471862793, 0.5855414271354675, 
389, 3080681456, 2.948845148086548, -88.13617706298828, -95.33356475830078, 9.84566593170166, -0.08517380058765411, 0.2774028182029724, 1.2039458751678467, -2.193103790283203, 0.6057767271995544, 
390, 3080689789, 2.930274486541748, -88.13597106933594, -95.30933380126953, 9.809380531311035, -0.0453074686229229, 0.2720099091529846, 1.1906776428222656, -2.1451539993286133, 0.46728044748306274, 
391, 3080698122, 2.8901829719543457, -88.1365966796875, -95.26459503173828, 9.818281173706055, -0.07957541942596436, 0.3051903247833252, 1.1352484226226807, -2.269280433654785, 0.6863334774971008, 
392, 3080706455, 2.8076603412628174, -88.13764953613281, -95.17697143554688, 9.85004997253418, -0.07722218334674835, 0.26949194073677063, 1.1214936971664429, -2.277656316757202, 0.7216810584068298, 
393, 3080714788, 2.7702698707580566, -88.13785552978516, -95.1341781616211, 9.809536933898926, -0.06732035428285599, 0.23824913799762726, 1.2504100799560547, -2.2790393829345703, 0.6817741394042969, 
394, 3080723121, 2.683476209640503, -88.13827514648438, -95.04170989990234, 9.802865982055664, -0.06851894408464432, 0.2508774995803833, 1.1876296997070312, -2.2018380165100098, 0.7357176542282104, 
395, 3080731454, 2.644712448120117, -88.13743591308594, -94.99761962890625, 9.773425102233887, -0.07781907171010971, 0.2528168857097626, 1.2138842344284058, -2.1151082515716553, 0.6772916316986084, 
396, 3080739787, 2.5941224098205566, -88.13827514648438, -94.94200897216797, 9.843774795532227, -0.08963427692651749, 0.25198373198509216, 1.1081743240356445, -2.2417964935302734, 0.5938916802406311, 
397, 3080748120, 2.5858476161956787, -88.13743591308594, -94.92848205566406, 9.822529792785645, -0.1041480079293251, 0.2530861496925354, 1.202409029006958, -2.1263785362243652, 0.5595428943634033, 
398, 3080756453, 2.593759775161743, -88.13617706298828, -94.93081665039062, 9.815882682800293, -0.10500184446573257, 0.265900194644928, 1.2021783590316772, -2.0122926235198975, 0.35993120074272156, 
399, 3080764786, 2.639596700668335, -88.1352310180664, -94.9724349975586, 9.793368339538574, -0.09483024477958679, 0.22875460982322693, 1.0864022970199585, -2.1252005100250244, 0.34351253509521484, 
400, 3080773119, 2.6459362506866455, -88.13386535644531, -94.97368621826172, 9.840409278869629, -0.08534198999404907, 0.25305280089378357, 1.1367853879928589, -2.0168778896331787, 0.3623133599758148, 
401, 3080781452, 2.7018256187438965, -88.13229370117188, -95.0255126953125, 9.770073890686035, -0.06882733106613159, 0.2724857032299042, 1.0593023300170898, -2.03065824508667, 0.29999393224716187, 
402, 3080789785, 2.7138965129852295, -88.1319808959961, -95.03242492675781, 9.844843864440918, -0.0761289969086647, 0.2646200954914093, 1.1319442987442017, -2.1220242977142334, 0.34568971395492554, 
403, 3080798118, 2.7381324768066406, -88.13031005859375, -95.05284118652344, 9.775060653686523, -0.06650109589099884, 0.252708375453949, 1.0674476623535156, -2.0501248836517334, 0.42294222116470337, 
404, 3080806451, 2.705294609069824, -88.13031005859375, -95.01505279541016, 9.852295875549316, -0.0791669711470604, 0.258398175239563, 1.1192651987075806, -2.166567087173462, 0.5242465138435364, 
405, 3080814784, 2.719235897064209, -88.12810516357422, -95.02403259277344, 9.792348861694336, -0.07278189063072205, 0.2587728500366211, 1.1811493635177612, -1.9699269533157349, 0.4642068147659302, 
406, 3080823117, 2.6745762825012207, -88.1275863647461, -94.97358703613281, 9.8203763961792, -0.06277192384004593, 0.2845432460308075, 1.204458236694336, -2.094463348388672, 0.5693020224571228, 
407, 3080831450, 2.669954299926758, -88.12705993652344, -94.96440124511719, 9.756119728088379, -0.06403852254152298, 0.26402032375335693, 1.126488447189331, -2.167771339416504, 0.5446611046791077, 
408, 3080839783, 2.6226963996887207, -88.12560272216797, -94.91228485107422, 9.831106185913086, -0.07226970046758652, 0.23307523131370544, 1.1256943941116333, -2.0106277465820312, 0.5736051797866821, 
409, 3080848116, 2.6270997524261475, -88.12445068359375, -94.91127014160156, 9.78467082977295, -0.05832405015826225, 0.24505509436130524, 1.2219784259796143, -2.0807085037231445, 0.5074436068534851, 
410, 3080856449, 2.623162269592285, -88.12445068359375, -94.90189361572266, 9.821882247924805, -0.07375950366258621, 0.30480819940567017, 1.1719281673431396, -2.1714084148406982, 0.4135930836200714, 
411, 3080864782, 2.6244044303894043, -88.12320709228516, -94.89857482910156, 9.782587051391602, -0.0663994774222374, 0.2693091630935669, 1.1150646209716797, -2.0723838806152344, 0.5169721245765686, 
412, 3080873115, 2.6151604652404785, -88.12257385253906, -94.88430786132812, 9.823652267456055, -0.06101151555776596, 0.28377383947372437, 1.1592745780944824, -2.103607416152954, 0.43162545561790466, 
413, 3080881448, 2.6405630111694336, -88.12152862548828, -94.90535736083984, 9.810883522033691, -0.056535325944423676, 0.2625838816165924, 1.081637978553772, -2.077942132949829, 0.4203552007675171, 
414, 3080889781, 2.638911008834839, -88.12007904052734, -94.89923095703125, 9.81549072265625, -0.0731402263045311, 0.25984418392181396, 1.0605828762054443, -2.0280709266662598, 0.39581671357154846, 
415, 3080898114, 2.6581764221191406, -88.1183090209961, -94.9139633178711, 9.87758731842041, -0.07103857398033142, 0.24186237156391144, 1.1237220764160156, -2.019976854324341, 0.44312623143196106, 
416, 3080906447, 2.651820182800293, -88.11737060546875, -94.90351104736328, 9.820686340332031, -0.07717723399400711, 0.2700375020503998, 1.0239802598953247, -2.056861400604248, 0.4134649634361267, 
417, 3080914780, 2.6597726345062256, -88.1163330078125, -94.90702056884766, 9.793741226196289, -0.0670403391122818, 0.27767762541770935, 1.0666279792785645, -2.0700273513793945, 0.4898466467857361, 
418, 3080923113, 2.6242997646331787, -88.11487579345703, -94.8676528930664, 9.813919067382812, -0.07135403901338577, 0.28217995166778564, 1.030537486076355, -2.017287492752075, 0.5261163711547852, 
419, 3080931446, 2.5885634422302246, -88.1134262084961, -94.82768249511719, 9.75413703918457, -0.06063598021864891, 0.25297605991363525, 1.0834821462631226, -2.041620969772339, 0.6607704758644104, 
420, 3080939779, 2.515946388244629, -88.1121826171875, -94.75000762939453, 9.872352600097656, -0.06677253544330597, 0.26898303627967834, 1.0878621339797974, -1.9729748964309692, 0.6757034659385681, 
421, 3080948112, 2.4750983715057373, -88.11051940917969, -94.7052993774414, 9.775211334228516, -0.05040329694747925, 0.2533216178417206, 1.0410137176513672, -2.0237674713134766, 0.6780087947845459, 
422, 3080956445, 2.395904541015625, -88.110107421875, -94.62098693847656, 9.80376148223877, -0.061009492725133896, 0.30214181542396545, 1.1076619625091553, -2.083397626876831, 0.7076956033706665, 
423, 3080964778, 2.328904628753662, -88.1092758178711, -94.55030822753906, 9.784319877624512, -0.0802777037024498, 0.2989192605018616, 0.9990319609642029, -2.099278450012207, 0.7842565774917603, 
424, 3080973111, 2.2713141441345215, -88.10782623291016, -94.48963165283203, 9.786785125732422, -0.08214276283979416, 0.29259249567985535, 0.9249044060707092, -2.0212833881378174, 0.6156637072563171, 
425, 3080981444, 2.230767250061035, -88.10504150390625, -94.44660949707031, 9.777585983276367, -0.06043713912367821, 0.2883281111717224, 0.8835374712944031, -1.8825056552886963, 0.668044924736023, 
426, 3080989777, 2.182426691055298, -88.10391235351562, -94.39551544189453, 9.799541473388672, -0.10690192133188248, 0.28365275263786316, 0.855259358882904, -2.04126238822937, 0.577626645565033, 
427, 3080998110, 2.156392812728882, -88.10318756103516, -94.36737060546875, 9.800922393798828, -0.06575048714876175, 0.269663006067276, 0.7982931733131409, -2.128504514694214, 0.616944432258606, 
428, 3081006443, 2.102276563644409, -88.10276794433594, -94.31138610839844, 9.784436225891113, -0.07736951112747192, 0.2864062190055847, 0.8045686483383179, -2.1528122425079346, 0.6038042902946472, 
429, 3081014776, 2.1144707202911377, -88.10452270507812, -94.32235717773438, 9.797201156616211, -0.09712253510951996, 0.2790519893169403, 0.7024447321891785, -2.4461467266082764, 0.4753233790397644, 
430, 3081023109, 2.06250262260437, -88.10566711425781, -94.26878356933594, 9.862149238586426, -0.08698761463165283, 0.2735300064086914, 0.7182230949401855, -2.2870051860809326, 0.5949417948722839, 
431, 3081031442, 2.033737897872925, -88.107421875, -94.23794555664062, 9.812100410461426, -0.0686550885438919, 0.2347966879606247, 0.8396859169006348, -2.4434828758239746, 0.6418671607971191, 
432, 3081039775, 1.9298253059387207, -88.110107421875, -94.13075256347656, 9.846529960632324, -0.05493554100394249, 0.2693105638027191, 0.8955249190330505, -2.461822509765625, 0.814788818359375, 
433, 3081048108, 1.875172734260559, -88.11238861083984, -94.0738754272461, 9.78823184967041, -0.06562864780426025, 0.2971220314502716, 0.8245990872383118, -2.4608237743377686, 0.741967499256134, 
434, 3081056441, 1.777457356452942, -88.11653900146484, -93.97258758544922, 9.80811595916748, -0.07855121046304703, 0.31524571776390076, 0.973878800868988, -2.7075397968292236, 0.7998557090759277, 
435, 3081064774, 1.6949234008789062, -88.1207046508789, -93.8867416381836, 9.796675682067871, -0.062252335250377655, 0.2755783498287201, 0.9777719974517822, -2.7188100814819336, 0.8633788824081421, 
436, 3081073107, 1.5337328910827637, -88.12654113769531, -93.72008514404297, 9.803833961486816, -0.09225033968687057, 0.24528267979621887, 1.1271032094955444, -2.824007749557495, 1.051438808441162, 
437, 3081081440, 1.4517751932144165, -88.12873840332031, -93.63378143310547, 9.85751724243164, -0.09577711671590805, 0.23327559232711792, 1.0841480493545532, -2.4821600914001465, 0.8558483719825745, 
438, 3081089773, 1.3194975852966309, -88.13072204589844, -93.49662017822266, 9.803221702575684, -0.0937572494149208, 0.27216631174087524, 1.1423949003219604, -2.416510820388794, 0.9245201349258423, 
439, 3081098106, 1.219791054725647, -88.1334457397461, -93.39154815673828, 9.808355331420898, -0.07515060156583786, 0.29491308331489563, 1.185503602027893, -2.5487828254699707, 0.9270559549331665, 
440, 3081106439, 1.1055452823638916, -88.13554382324219, -93.27153015136719, 9.842827796936035, -0.08873452246189117, 0.26799851655960083, 1.2074294090270996, -2.3964295387268066, 0.8556435704231262, 
441, 3081114772, 1.0205678939819336, -88.13597106933594, -93.181884765625, 9.777764320373535, -0.10780774801969528, 0.2622600495815277, 1.1234915256500244, -2.2682299613952637, 0.8598698377609253, 
442, 3081123105, 0.9620071053504944, -88.13701629638672, -93.1185073852539, 9.80305004119873, -0.09466928988695145, 0.2974044382572174, 1.1449050903320312, -2.327065944671631, 0.6336705684661865, 
443, 3081131438, 0.9491589665412903, -88.1379623413086, -93.10050964355469, 9.79250431060791, -0.06331431120634079, 0.2633443772792816, 1.2051753997802734, -2.3346219062805176, 0.5826725959777832, 
444, 3081139771, 0.8970625400543213, -88.13932800292969, -93.04446411132812, 9.823823928833008, -0.10168550163507462, 0.2977880537509918, 0.9968804121017456, -2.3410773277282715, 0.602293074131012, 
445, 3081148104, 0.8864954710006714, -88.14153289794922, -93.02886962890625, 9.836651802062988, -0.09719455242156982, 0.2258218228816986, 1.1686749458312988, -2.4853360652923584, 0.5750139355659485, 
446, 3081156437, 0.8456928730010986, -88.1433334350586, -92.98287200927734, 9.807197570800781, -0.08209887146949768, 0.2193392515182495, 1.1015657186508179, -2.352782726287842, 0.5627703666687012, 
447, 3081164770, 0.8516167402267456, -88.14375305175781, -92.98450469970703, 9.860783576965332, -0.08717906475067139, 0.24657413363456726, 1.1205971240997314, -2.28721022605896, 0.5057530999183655, 
448, 3081173103, 0.8196765780448914, -88.1433334350586, -92.94815826416016, 9.817996978759766, -0.07736151665449142, 0.24146275222301483, 1.0768351554870605, -2.1396594047546387, 0.5239775776863098, 
449, 3081181436, 0.8216917514801025, -88.14227294921875, -92.94535064697266, 9.836764335632324, -0.08768972009420395, 0.2721003592014313, 1.131829023361206, -2.0886871814727783, 0.5189316272735596, 
450, 3081189769, 0.8074418902397156, -88.14164733886719, -92.92669677734375, 9.817950248718262, -0.06839898228645325, 0.2562923729419708, 1.0650910139083862, -2.1097803115844727, 0.45503687858581543, 
451, 3081198102, 0.8054271936416626, -88.13996124267578, -92.91889953613281, 9.848824501037598, -0.08783143013715744, 0.251743346452713, 1.2672642469406128, -2.036088466644287, 0.5380525588989258, 
452, 3081206435, 0.765627384185791, -88.13912200927734, -92.87310791015625, 9.828164100646973, -0.08649036288261414, 0.2787838280200958, 1.236937165260315, -2.0545051097869873, 0.560080885887146, 
453, 3081214768, 0.7688086628913879, -88.13754272460938, -92.87123107910156, 9.818263053894043, -0.07779841870069504, 0.25887998938560486, 1.202255368232727, -2.0668766498565674, 0.5164854526519775, 
454, 3081223101, 0.7398331165313721, -88.1372299194336, -92.83605194091797, 9.805074691772461, -0.08075224608182907, 0.2759494185447693, 1.2316861152648926, -2.111983299255371, 0.5194566249847412, 
455, 3081231434, 0.7827420234680176, -88.13470458984375, -92.8742904663086, 9.78272533416748, -0.07289900630712509, 0.26785099506378174, 1.1942124366760254, -1.9699780941009521, 0.3592396378517151, 
456, 3081239767, 0.7622243762016296, -88.1334457397461, -92.84660339355469, 9.83023738861084, -0.06015460193157196, 0.2679068148136139, 1.3304033279418945, -1.978379487991333, 0.4871315062046051, 
457, 3081248100, 0.7631088495254517, -88.13240051269531, -92.84039306640625, 9.842235565185547, -0.08124041557312012, 0.25547778606414795, 1.4109601974487305, -2.1043503284454346, 0.5332627892494202, 
458, 3081256433, 0.7489776611328125, -88.13260650634766, -92.81805419921875, 9.840286254882812, -0.06670035421848297, 0.23564405739307404, 1.4912352561950684, -2.1831653118133545, 0.47076407074928284, 
459, 3081264766, 0.6822026968002319, -88.1312484741211, -92.74121856689453, 9.886494636535645, -0.059301264584064484, 0.22862684726715088, 1.795404076576233, -2.058347225189209, 0.8092048764228821, 
460, 3081273099, 0.5221132040023804, -88.12800598144531, -92.56812286376953, 9.89284896850586, -0.06047092005610466, 0.2231459617614746, 2.05584979057312, -1.7526155710220337, 1.0568946599960327, 
461, 3081281432, 0.2922229766845703, -88.11882781982422, -92.32366180419922, 9.992859840393066, -0.08533883839845657, 0.1411159634590149, 2.259431838989258, -1.101962924003601, 1.4601396322250366, 
462, 3081289765, -0.021248316392302513, -88.10060119628906, -91.99427032470703, 9.898188591003418, -0.05418623238801956, 0.20638421177864075, 2.4248995780944824, 0.005916888825595379, 1.68224036693573, 
463, 3081298098, -0.33695459365844727, -88.07786560058594, -91.66436004638672, 9.850303649902344, -0.04579075425863266, 0.23561884462833405, 2.2647337913513184, 0.5064446330070496, 1.838000774383545, 
464, 3081306431, -0.7235590219497681, -88.05569458007812, -91.2640151977539, 9.846217155456543, -0.07090738415718079, 0.25390222668647766, 2.2026450634002686, 0.4275784194469452, 2.0308499336242676, 
465, 3081314764, -1.1160770654678345, -88.03457641601562, -90.85688781738281, 9.814053535461426, -0.1039184108376503, 0.29219090938568115, 2.266347646713257, 0.3065255880355835, 2.2144532203674316, 
466, 3081323097, -1.4786773920059204, -88.01495361328125, -90.48060607910156, 9.845364570617676, -0.07498405128717422, 0.2949655055999756, 2.170396566390991, 0.11890126764774323, 1.992966890335083, 
467, 3081331430, -1.8887468576431274, -87.99592590332031, -90.05612182617188, 9.904187202453613, -0.02245721034705639, 0.2747461795806885, 2.2561533451080322, 0.01196184940636158, 2.3467764854431152, 
468, 3081339763, -2.466125249862671, -87.97454833984375, -89.46235656738281, 9.90102481842041, -0.04994257539510727, 0.2750645875930786, 2.475461959838867, 0.29230964183807373, 2.983212947845459, 
469, 3081348096, -3.078425168991089, -87.94996643066406, -88.83111572265625, 9.981547355651855, -0.10052794218063354, 0.24611002206802368, 2.7969465255737305, 0.5960688591003418, 3.341991901397705, 
470, 3081356429, -3.781696081161499, -87.921142578125, -88.10354614257812, 10.03705883026123, -0.05692969262599945, 0.16755278408527374, 3.3240103721618652, 1.148260474205017, 3.7314562797546387, 
471, 3081364762, -4.602389812469482, -87.88326263427734, -87.2565689086914, 10.243122100830078, -0.027967257425189018, 0.1275942325592041, 3.632457733154297, 2.0652503967285156, 4.551650047302246, 
472, 3081373095, -5.6824212074279785, -87.83155822753906, -86.14563751220703, 10.09778118133545, -0.1639723926782608, 0.09172441065311432, 4.208265781402588, 3.4997503757476807, 5.899471282958984, 
473, 3081381428, -6.864781856536865, -87.77235412597656, -84.9304428100586, 10.949490547180176, 0.3034819960594177, 0.08347869664430618, 4.423322677612305, 4.197635650634766, 6.838259220123291, 
474, 3081389761, -9.211823463439941, -87.66695404052734, -82.56132507324219, 12.315691947937012, 1.564774751663208, -0.0834217369556427, 2.952911615371704, 8.79055118560791, 13.34760570526123, 
475, 3081398094, -14.186371803283691, -87.45339965820312, -77.57666015625, 13.188274383544922, 0.44734907150268555, -0.4853087365627289, 1.2282038927078247, 17.72414779663086, 30.61811637878418, 
476, 3081406427, -19.723176956176758, -87.151123046875, -71.9820327758789, 12.894594192504883, -1.7813769578933716, -0.35131001472473145, 6.722700119018555, 23.286407470703125, 41.15452194213867, 
477, 3081414760, -22.446260452270508, -86.79595184326172, -69.22041320800781, 13.703946113586426, 0.31299087405204773, -0.23342597484588623, 4.684288024902344, 31.284387588500977, 32.170921325683594, 
478, 3081423093, -22.25084114074707, -86.39586639404297, -69.41187286376953, 14.078424453735352, -0.14696939289569855, -0.5462612509727478, 1.0087672472000122, 42.79075622558594, 17.395349502563477, 
479, 3081431426, -22.125429153442383, -85.94884490966797, -69.52497100830078, 11.25474739074707, -0.35258039832115173, 0.1471341997385025, 2.048631429672241, 47.813926696777344, 19.93903923034668, 
480, 3081439759, -21.78931427001953, -85.48811340332031, -69.8558349609375, 11.62821102142334, -0.23581255972385406, 0.15394267439842224, 1.3209550380706787, 50.18184280395508, 18.29977798461914, 
481, 3081448092, -21.23179817199707, -85.00264739990234, -70.40897369384766, 11.723954200744629, -0.5529295206069946, 0.15869486331939697, 1.3031023740768433, 54.008487701416016, 16.75956916809082, 
482, 3081456425, -20.495378494262695, -84.49754333496094, -71.1434555053711, 11.954779624938965, -0.5696495175361633, 0.2149427980184555, 1.133843183517456, 57.35149383544922, 14.441195487976074, 
483, 3081464758, -19.52623748779297, -83.96720123291016, -72.11327362060547, 12.13442611694336, -0.7829998731613159, 0.20880770683288574, 1.056180715560913, 61.59168243408203, 11.30526351928711, 
484, 3081473091, -18.319181442260742, -83.41352081298828, -73.31973266601562, 12.104079246520996, -1.127366542816162, 0.2260197550058365, 1.4596585035324097, 65.85012817382812, 6.882008075714111, 
485, 3081481424, -16.937625885009766, -82.83346557617188, -74.69683837890625, 11.976801872253418, -1.126677393913269, 0.34710365533828735, 2.2755014896392822, 70.12297058105469, 2.739658832550049, 
486, 3081489757, -15.452980041503906, -82.23312377929688, -76.1751708984375, 11.533867835998535, -1.366843342781067, 0.43388989567756653, 2.778414726257324, 73.45403289794922, -1.6630504131317139, 
487, 3081498090, -13.89466381072998, -81.61180114746094, -77.72310638427734, 11.381470680236816, -1.140863060951233, 0.638824999332428, 3.648895502090454, 76.51248168945312, -5.850924015045166, 
488, 3081506423, -12.362398147583008, -80.9714584350586, -79.24003601074219, 11.159394264221191, -1.1159374713897705, 0.7020807862281799, 4.47311544418335, 78.92437744140625, -9.00733470916748, 
489, 3081514756, -10.891416549682617, -80.30374908447266, -80.69062805175781, 11.133673667907715, -0.9279128313064575, 0.7965922355651855, 5.338192462921143, 81.95570373535156, -11.079185485839844, 
490, 3081523089, -9.559236526489258, -79.61186981201172, -81.99623107910156, 10.657560348510742, -0.5795588493347168, 0.8835052251815796, 6.121355056762695, 84.41690063476562, -11.768139839172363, 
491, 3081531422, -8.358927726745605, -78.90069580078125, -83.1749267578125, 10.123834609985352, -0.24999088048934937, 1.059171438217163, 5.640573978424072, 86.17863464355469, -12.245389938354492, 
492, 3081539755, -7.341484546661377, -78.17798614501953, -84.17346954345703, 10.043556213378906, -0.49612101912498474, 1.2277696132659912, 5.181667804718018, 87.02710723876953, -11.36663818359375, 
493, 3081548088, -6.448172569274902, -77.44337463378906, -85.040771484375, 9.9143648147583, -0.23115713894367218, 1.3472696542739868, 6.042593479156494, 87.92301940917969, -10.725356101989746, 
494, 3081556421, -5.672737121582031, -76.70380401611328, -85.78981018066406, 9.599324226379395, -0.18829329311847687, 1.5109641551971436, 5.949127674102783, 88.240966796875, -10.255359649658203, 
495, 3081564754, -4.986968994140625, -75.95775604248047, -86.44831085205078, 9.454283714294434, -0.33907967805862427, 1.6845752000808716, 6.079607009887695, 88.65493774414062, -9.768274307250977, 
496, 3081573087, -4.3814191818237305, -75.21469116210938, -87.02394104003906, 8.969432830810547, -0.2656620442867279, 1.9232441186904907, 6.299300670623779, 88.12794494628906, -9.483850479125977, 
497, 3081581420, -3.835437297821045, -74.47405242919922, -87.54219055175781, 8.350308418273926, -0.2574814260005951, 2.1502115726470947, 6.06766939163208, 87.58830261230469, -9.338693618774414, 
498, 3081589753, -3.366873025894165, -73.77606964111328, -87.973876953125, 7.192279815673828, -0.5630233883857727, 2.3895843029022217, 6.945469856262207, 82.35072326660156, -8.508113861083984, 
499, 3081598086, -2.9175596237182617, -73.09160614013672, -88.37958526611328, 8.68299388885498, -0.4658810496330261, 2.165194272994995, 7.835030555725098, 80.54309844970703, -8.848451614379883, 
500, 3081606419, -2.520390748977661, -72.40650939941406, -88.7322006225586, 8.155835151672363, -0.17378485202789307, 2.4285106658935547, 7.78928279876709, 80.58277893066406, -8.268617630004883, 
501, 3081614752, -2.142245292663574, -71.7342300415039, -89.07137298583984, 8.427412986755371, -0.39275234937667847, 2.44116473197937, 7.231912136077881, 78.8907470703125, -8.72603702545166, 
502, 3081623085, -1.8180468082427979, -71.06182861328125, -89.34810638427734, 8.26224422454834, -0.3485749065876007, 2.6459622383117676, 7.9647393226623535, 78.87184143066406, -7.430052280426025, 
503, 3081631418, -1.5277248620986938, -70.40402221679688, -89.59434509277344, 7.905259132385254, 0.11914505064487457, 2.931382179260254, 7.521121025085449, 76.96247100830078, -6.931082248687744, 
504, 3081639751, -1.2878741025924683, -69.76490020751953, -89.79484558105469, 7.537965774536133, 0.12886986136436462, 3.100236415863037, 6.717316150665283, 74.7251968383789, -5.938446998596191, 
505, 3081648084, -1.1095952987670898, -69.15225219726562, -89.93305969238281, 7.080128192901611, 0.20222727954387665, 3.2566545009613037, 6.441343307495117, 71.3968734741211, -3.7703938484191895, 
506, 3081656417, -1.0201083421707153, -68.56295013427734, -89.97410583496094, 7.024636268615723, 0.5368106961250305, 3.325911521911621, 6.691105842590332, 68.6014404296875, -0.09650202095508575, 
507, 3081664750, -0.9727481603622437, -67.99801635742188, -89.97357177734375, 7.390511512756348, 0.5036788582801819, 3.362266778945923, 6.317365646362305, 65.5583724975586, 1.7120877504348755, 
508, 3081673083, -0.9796122312545776, -67.45043182373047, -89.91456604003906, 7.5648345947265625, 0.2253735065460205, 3.3837738037109375, 6.293362617492676, 63.508548736572266, 4.177824974060059, 
509, 3081681416, -1.001348853111267, -66.9166030883789, -89.84325408935547, 7.830068111419678, -0.230582594871521, 3.5645370483398438, 5.8567914962768555, 61.76932144165039, 4.935829162597656, 
510, 3081689749, -1.0116190910339355, -66.40093994140625, -89.78046417236328, 7.528882026672363, -0.3898814618587494, 3.8266661167144775, 6.251302719116211, 59.6678352355957, 4.448899745941162, 
511, 3081698082, -1.0182290077209473, -65.90953826904297, -89.720703125, 7.052577495574951, -0.09573981910943985, 4.018433094024658, 6.345279693603516, 56.68516540527344, 4.453381061553955, 
512, 3081706415, -1.044219970703125, -65.4508056640625, -89.64339447021484, 6.9782280921936035, 0.12066684663295746, 4.09079647064209, 5.894286155700684, 52.81783676147461, 5.183514595031738, 
513, 3081714748, -1.0909377336502075, -65.02188110351562, -89.54855346679688, 7.12304162979126, 0.1809421181678772, 4.231996059417725, 5.303977012634277, 49.14826965332031, 6.233366012573242, 
514, 3081723081, -1.1493855714797974, -64.62213897705078, -89.44673919677734, 6.740307331085205, 0.20935691893100739, 4.3257880210876465, 4.601426601409912, 45.70732879638672, 6.508153438568115, 
515, 3081731414, -1.2249271869659424, -64.25294494628906, -89.3319320678711, 7.440277099609375, 0.17584361135959625, 4.29555082321167, 3.9409611225128174, 41.94404602050781, 7.371531963348389, 
516, 3081739747, -1.3206104040145874, -63.908912658691406, -89.19915771484375, 7.012537002563477, 0.10825186967849731, 4.481489181518555, 3.416431427001953, 38.9647331237793, 8.257784843444824, 
517, 3081748080, -1.4259209632873535, -63.59733200073242, -89.05821990966797, 6.8314385414123535, 0.06693893671035767, 4.680829048156738, 3.104910135269165, 34.97464370727539, 8.881439208984375, 
518, 3081756413, -1.530644416809082, -63.32300567626953, -88.925048828125, 6.648159980773926, -0.2254694104194641, 4.66598653793335, 2.302529811859131, 30.560667037963867, 8.362939834594727, 
519, 3081764746, -1.622273325920105, -63.083335876464844, -88.80697631835938, 6.657730579376221, -0.26978012919425964, 4.759730339050293, 2.224879026412964, 26.351503372192383, 7.685375690460205, 
520, 3081773079, -1.694920539855957, -62.882301330566406, -88.71467590332031, 6.151082515716553, -0.3328167796134949, 4.934009075164795, 1.7289361953735352, 21.805049896240234, 6.1086907386779785, 
521, 3081781412, -1.7458504438400269, -62.73258972167969, -88.65018463134766, 5.712306022644043, -0.4757900834083557, 5.059360027313232, 1.3502545356750488, 15.622174263000488, 4.585256099700928, 
522, 3081789745, -1.7875006198883057, -62.63764572143555, -88.59551239013672, 5.757014751434326, -0.4253441393375397, 4.96481990814209, 1.412855625152588, 9.122098922729492, 3.740190267562866, 
523, 3081798078, -1.8265862464904785, -62.58833694458008, -88.5445785522461, 6.351051330566406, -0.04408283531665802, 4.849837779998779, 1.3118330240249634, 3.5990560054779053, 3.5066909790039062, 
524, 3081806411, -1.8791221380233765, -62.572792053222656, -88.48228454589844, 6.888668060302734, 0.16293008625507355, 4.7038893699646, 0.9153501391410828, -0.42479920387268066, 3.8836042881011963, 
525, 3081814744, -1.9380546808242798, -62.58097457885742, -88.4172134399414, 7.403637409210205, -0.04646934196352959, 4.586386203765869, 0.4350321888923645, -3.3278913497924805, 4.070972442626953, 
526, 3081823077, -2.000356435775757, -62.604522705078125, -88.34940338134766, 7.719696521759033, -0.16813623905181885, 4.585409641265869, 0.33229348063468933, -5.136332988739014, 4.026686191558838, 
527, 3081831410, -2.056330919265747, -62.6428337097168, -88.289306640625, 7.681607246398926, -0.2897894084453583, 4.614321708679199, 0.26608073711395264, -6.94277811050415, 3.6637070178985596, 
528, 3081839743, -2.107130765914917, -62.698665618896484, -88.23494720458984, 7.671463966369629, -0.3178198039531708, 4.627528667449951, 0.2932574450969696, -8.988869667053223, 3.141740322113037, 
529, 3081848076, -2.147559404373169, -62.7701301574707, -88.19293212890625, 7.4126877784729, -0.19308750331401825, 4.689183712005615, 0.2056310921907425, -10.880735397338867, 2.499539613723755, 
530, 3081856409, -2.186379909515381, -62.86732864379883, -88.1555404663086, 7.0132012367248535, -0.2417844533920288, 4.791470050811768, -0.09327425807714462, -13.921917915344238, 1.984104871749878, 
531, 3081864742, -2.2182095050811768, -62.99631118774414, -88.12665557861328, 7.019958019256592, -0.35959669947624207, 4.7673726081848145, -0.15766847133636475, -17.753705978393555, 1.4896732568740845, 
532, 3081873075, -2.2498958110809326, -63.15351486206055, -88.09551239013672, 7.419032096862793, -0.42568230628967285, 4.614570617675781, 0.11029494553804398, -21.10791778564453, 1.3394458293914795, 
533, 3081881408, -2.269855260848999, -63.329376220703125, -88.07568359375, 7.717132091522217, -0.4181388020515442, 4.481989860534668, 0.3031958341598511, -23.357593536376953, 0.7462453842163086, 
534, 3081889741, -2.2844743728637695, -63.52043914794922, -88.0603256225586, 8.015119552612305, -0.27828192710876465, 4.371521949768066, 0.48208579421043396, -25.13799285888672, 0.30160781741142273, 
535, 3081898074, -2.3013012409210205, -63.71700668334961, -88.04180145263672, 8.69491195678711, -0.18311108648777008, 4.169727802276611, 0.54733806848526, -25.836400985717773, 0.5538697838783264, 
536, 3081906407, -2.307431221008301, -63.9049186706543, -88.03512573242188, 9.14793586730957, -0.49910372495651245, 4.155361175537109, 0.5676117539405823, -24.741968154907227, -0.17078299820423126, 
537, 3081914740, -2.280243158340454, -64.08680725097656, -88.06122589111328, 9.013672828674316, -0.7069591879844666, 4.159114837646484, 1.0264910459518433, -23.98253059387207, -1.735352635383606, 
538, 3081923073, -2.223236322402954, -64.26618194580078, -88.11663818359375, 8.854825019836426, -0.5888262987136841, 4.17490291595459, 1.4361398220062256, -23.5903263092041, -3.352994918823242, 
539, 3081931406, -2.141572952270508, -64.44441986083984, -88.1985092163086, 8.776566505432129, -0.31310299038887024, 4.111173629760742, 1.51925790309906, -23.438766479492188, -4.554276943206787, 
540, 3081939739, -2.0595319271087646, -64.62213134765625, -88.28338623046875, 8.573102951049805, -0.06749771535396576, 4.117276191711426, 1.234939694404602, -23.348527908325195, -4.77455997467041, 
541, 3081948072, -1.9940111637115479, -64.80181884765625, -88.35292053222656, 8.609563827514648, 0.03069354221224785, 4.087034702301025, 0.8929638266563416, -23.648775100708008, -3.815126419067383, 
542, 3081956405, -1.956541657447815, -64.9800033569336, -88.39306640625, 8.969635009765625, 0.16399750113487244, 3.96484375, 0.7220144271850586, -23.49980354309082, -2.3992226123809814, 
543, 3081964738, -1.9426875114440918, -65.14872741699219, -88.41104125976562, 9.279852867126465, 0.19436748325824738, 3.913426399230957, 0.28536829352378845, -22.434276580810547, -1.0866715908050537, 
544, 3081973071, -1.9505983591079712, -65.30873107910156, -88.4087905883789, 9.270339965820312, 0.02179732173681259, 3.911407232284546, -0.13871395587921143, -21.388113021850586, -0.15833446383476257, 
545, 3081981404, -1.9628585577011108, -65.45891571044922, -88.40296173095703, 9.307579040527344, -0.10781320929527283, 3.879612445831299, -0.258588582277298, -20.248966217041016, 0.18465307354927063, 
546, 3081989737, -1.980939269065857, -65.60189819335938, -88.3929443359375, 8.978090286254883, -0.07240419834852219, 3.9583849906921387, -0.5119134187698364, -19.353851318359375, 0.28995323181152344, 
547, 3081998070, -1.9985451698303223, -65.74620819091797, -88.38627624511719, 8.44027042388916, -0.11174402385950089, 4.106930255889893, -0.8058882355690002, -19.546857833862305, 0.23959565162658691, 
548, 3082006403, -2.012925386428833, -65.90461730957031, -88.3858871459961, 8.01430606842041, -0.2879769802093506, 4.112358093261719, -1.1072653532028198, -21.193649291992188, -0.2568724453449249, 
549, 3082014736, -2.0180888175964355, -66.07774353027344, -88.39483642578125, 8.136053085327148, -0.4535844326019287, 4.071802139282227, -1.026119589805603, -22.97386932373047, -0.6581709384918213, 
550, 3082023069, -2.018566846847534, -66.26779174804688, -88.40953826904297, 7.894433498382568, -0.39968210458755493, 4.0899338722229, -1.1003751754760742, -24.96250343322754, -1.1280642747879028, 
551, 3082031402, -2.017251491546631, -66.47511291503906, -88.42457580566406, 7.925161361694336, -0.18882733583450317, 4.00310754776001, -0.9187447428703308, -27.06477165222168, -1.0891820192337036, 
552, 3082039735, -2.026754140853882, -66.69776153564453, -88.42644500732422, 8.308774948120117, -0.17652180790901184, 3.8107852935791016, -0.7715782523155212, -28.898130416870117, -0.6455560922622681, 
553, 3082048068, -2.0275754928588867, -66.92414093017578, -88.4383773803711, 8.462784767150879, -0.30670231580734253, 3.804997205734253, -0.8413002490997314, -29.355297088623047, -1.0158101320266724, 
554, 3082056401, -2.013713836669922, -67.16173553466797, -88.46511840820312, 8.123406410217285, -0.3853514790534973, 3.8702738285064697, -0.720413863658905, -30.651519775390625, -1.8643211126327515, 
555, 3082064734, -1.9868450164794922, -67.41371154785156, -88.50550079345703, 8.073700904846191, -0.29027059674263, 3.826911449432373, -0.670696496963501, -32.382503509521484, -2.4165642261505127, 
556, 3082073067, -1.9624956846237183, -67.67921447753906, -88.54476165771484, 7.877491474151611, -0.024267012253403664, 3.810452699661255, -0.8385980725288391, -33.97328186035156, -2.499093532562256, 
557, 3082081400, -1.957678198814392, -67.96626281738281, -88.56747436523438, 7.588284492492676, 0.12566110491752625, 3.782876968383789, -1.3697097301483154, -36.61567306518555, -1.6965478658676147, 
558, 3082089733, -2.001497745513916, -68.27590942382812, -88.54354858398438, 7.689633369445801, 0.163249671459198, 3.7068264484405518, -2.0120134353637695, -39.378028869628906, 0.1765335202217102, 
559, 3082098066, -2.097233295440674, -68.60761260986328, -88.47051239013672, 7.635330677032471, 0.4854532778263092, 3.7210702896118164, -2.758516550064087, -42.123844146728516, 2.305361747741699, 
560, 3082106399, -2.2986199855804443, -68.96554565429688, -88.296630859375, 7.257578372955322, 0.8339071273803711, 3.707608461380005, -4.135233402252197, -45.41751480102539, 6.290021896362305, 
561, 3082114732, -2.605449914932251, -69.35211944580078, -88.0235824584961, 7.216693878173828, 0.7341778874397278, 3.549177885055542, -5.622836589813232, -49.07215881347656, 10.170104026794434, 
562, 3082123065, -3.0162856578826904, -69.76022338867188, -87.64551544189453, 7.854464530944824, 0.35897573828697205, 3.2750566005706787, -6.216756820678711, -51.89775085449219, 13.821294784545898, 
563, 3082131398, -3.48781418800354, -70.17986297607422, -87.2071533203125, 8.005261421203613, 0.10256347805261612, 3.1345090866088867, -6.583606243133545, -53.528812408447266, 15.641886711120605, 
564, 3082139731, -4.017254829406738, -70.61190795898438, -86.71160888671875, 7.679742336273193, 0.00048432196490466595, 3.1935229301452637, -6.943591117858887, -55.24592971801758, 16.91377067565918, 
565, 3082148064, -4.628117084503174, -71.06553649902344, -86.13400268554688, 7.613000869750977, -0.021333733573555946, 3.15893816947937, -7.253681659698486, -58.22697448730469, 19.09281349182129, 
566, 3082156397, -5.318566799163818, -71.53578186035156, -85.47643280029297, 8.10177230834961, -0.0438225157558918, 3.0047616958618164, -7.54486608505249, -60.61939239501953, 20.709209442138672, 
567, 3082164730, -6.072226047515869, -72.01525115966797, -84.75850677490234, 8.715072631835938, -0.25309017300605774, 2.8119821548461914, -8.031413078308105, -62.15509033203125, 21.60953140258789, 
568, 3082173063, -6.882134914398193, -72.49807739257812, -83.984375, 8.65402603149414, -0.44896575808525085, 2.7581071853637695, -8.14667797088623, -62.96950912475586, 21.99449348449707, 
569, 3082181396, -7.755155563354492, -72.9920654296875, -83.14825439453125, 8.44321060180664, -0.4850206971168518, 2.7529525756835938, -8.361403465270996, -64.8185806274414, 22.47919464111328, 
570, 3082189729, -8.676942825317383, -73.50109100341797, -82.26065826416016, 8.035643577575684, -0.6945635080337524, 2.7347419261932373, -8.05754566192627, -67.05271911621094, 22.056900024414062, 
571, 3082198062, -9.624320983886719, -74.03308868408203, -81.35010528564453, 8.130615234375, -1.35342276096344, 2.5424044132232666, -8.1995267868042, -70.1132583618164, 20.513769149780273, 
572, 3082206395, -10.529501914978027, -74.58246612548828, -80.4732437133789, 8.853665351867676, -1.7675807476043701, 2.407588243484497, -6.752290725708008, -72.09778594970703, 16.88234519958496, 
573, 3082214728, -11.377671241760254, -75.15215301513672, -79.64346313476562, 8.967047691345215, -1.8693420886993408, 2.200782299041748, -5.082030296325684, -74.28609466552734, 13.041783332824707, 
574, 3082223061, -12.117228507995605, -75.73453521728516, -78.9207763671875, 9.020925521850586, -1.504316806793213, 2.0148231983184814, -4.251075267791748, -75.06697845458984, 7.506289958953857, 
575, 3082231394, -12.844600677490234, -76.32024383544922, -78.20693969726562, 8.958274841308594, -0.8594371676445007, 1.9038541316986084, -3.5768790245056152, -75.32167053222656, 5.516155242919922, 
576, 3082239727, -13.650806427001953, -76.91259002685547, -77.41299438476562, 8.669551849365234, -0.3481816351413727, 1.897939682006836, -3.5030336380004883, -76.4544906616211, 5.570381164550781, 
577, 3082248060, -14.60671329498291, -77.51546478271484, -76.47144317626953, 8.446883201599121, -0.32959502935409546, 1.9829519987106323, -3.942385196685791, -78.49128723144531, 7.098447799682617, 
578, 3082256393, -15.70607852935791, -78.1342544555664, -75.38446044921875, 8.492728233337402, -0.4797705411911011, 1.7771726846694946, -3.8632895946502686, -81.07142639160156, 7.533804416656494, 
579, 3082264726, -16.954769134521484, -78.7700424194336, -74.14896392822266, 8.808856010437012, -0.6651639938354492, 1.6093298196792603, -4.006411552429199, -83.78864288330078, 7.539673328399658, 
580, 3082273059, -18.321630477905273, -79.42162322998047, -72.7974853515625, 8.787793159484863, -0.9913505911827087, 1.5256667137145996, -4.227746963500977, -86.0112075805664, 5.938648223876953, 
581, 3082281392, -19.76570701599121, -80.08832550048828, -71.36561584472656, 9.726335525512695, -1.236720323562622, 1.0920437574386597, -3.613258123397827, -87.82786560058594, 3.2929880619049072, 
582, 3082289725, -21.25969886779785, -80.74468994140625, -69.8792953491211, 10.93577766418457, -1.4141387939453125, 0.6661004424095154, -2.8721814155578613, -86.37798309326172, 0.6051915287971497, 
583, 3082298058, -22.72016716003418, -81.37181854248047, -68.4209213256836, 11.822874069213867, -1.5090688467025757, 0.4147454500198364, -1.798885703086853, -82.19141387939453, -2.4452648162841797, 
584, 3082306391, -24.03786849975586, -81.96701049804688, -67.1011962890625, 11.827000617980957, -1.6919397115707397, 0.29465457797050476, -0.8744874596595764, -76.87212371826172, -6.889074802398682, 
585, 3082314724, -25.18024444580078, -82.54147338867188, -65.95330047607422, 11.357653617858887, -1.7439342737197876, 0.31482020020484924, 0.0003586009843274951, -72.64173889160156, -11.32237720489502, 
586, 3082323057, -25.99870491027832, -83.10966491699219, -65.1285171508789, 10.712788581848145, -1.3015269041061401, 0.48109978437423706, 0.5267078280448914, -69.04292297363281, -17.913637161254883, 
587, 3082331390, -26.665803909301758, -83.68183135986328, -64.4566650390625, 10.376130104064941, -0.9911593198776245, 0.5721534490585327, 0.6145907640457153, -67.88055419921875, -21.63899040222168, 
588, 3082339723, -27.309404373168945, -84.25430297851562, -63.80531311035156, 10.885367393493652, -0.452277809381485, 0.5223918557167053, 1.071986198425293, -67.15218353271484, -23.468671798706055, 
589, 3082348056, -28.050003051757812, -84.80842590332031, -63.05953598022461, 11.795172691345215, -0.24886412918567657, 0.272939532995224, 0.7818009853363037, -65.07514953613281, -22.827871322631836, 
590, 3082356389, -28.908964157104492, -85.32290649414062, -62.19333267211914, 12.501547813415527, 0.0036586467176675797, 0.015040259808301926, 1.0414785146713257, -60.73979949951172, -21.19919776916504, 
591, 3082364722, -30.008703231811523, -85.78582763671875, -61.08995819091797, 11.9578218460083, 0.5320127606391907, 0.13141220808029175, 0.6614127159118652, -55.66227340698242, -17.884437561035156, 
592, 3082373055, -31.804014205932617, -86.20801544189453, -59.293453216552734, 10.69907283782959, 0.6048708558082581, 0.41187164187431335, 0.14044322073459625, -53.381629943847656, -12.714415550231934, 
593, 3082381388, -34.57901382446289, -86.62107849121094, -56.5205192565918, 11.154041290283203, -1.7815159559249878, 0.579304039478302, -0.2871747612953186, -55.105552673339844, -9.222238540649414, 
594, 3082389721, -31.840747833251953, -87.04090881347656, -59.290496826171875, 20.09474754333496, -1.8491358757019043, -2.786374807357788, -2.708648681640625, -34.32139205932617, -42.584049224853516, 
595, 3082398054, -29.186542510986328, -87.28907012939453, -61.96117401123047, 10.643707275390625, -0.8470141291618347, 0.13189831376075745, -1.062005639076233, -19.81313133239746, -28.242910385131836, 
596, 3082406387, -24.543386459350586, -87.5528793334961, -66.60792541503906, 10.700279235839844, -0.2868082821369171, 0.041502971202135086, 0.7375116944313049, -19.121707916259766, -36.283782958984375, 
597, 3082414720, -19.75395965576172, -87.7341079711914, -71.39588928222656, 12.020533561706543, 0.766266942024231, -0.3445562720298767, 1.2290488481521606, -13.46627426147461, -29.542139053344727, 
598, 3082423053, -15.074077606201172, -87.86256408691406, -76.07950592041016, 10.506333351135254, 0.007650444284081459, 0.05293971672654152, 0.48144546151161194, -10.421529769897461, -24.793275833129883, 
599, 3082431386, -10.377894401550293, -87.95953369140625, -80.77593231201172, 10.795507431030273, 0.5994528532028198, 0.29705187678337097, 0.9276455640792847, -9.045633316040039, -22.0646915435791, 
600, 3082439719, -8.297346115112305, -87.9909439086914, -82.85869598388672, 12.014510154724121, 1.3826699256896973, -0.24389123916625977, 0.40275827050209045, -4.487114429473877, -8.924139976501465, 
601, 3082448052, -6.462333679199219, -88.01850891113281, -84.69684600830078, 9.875039100646973, -0.026573995128273964, 0.3368895351886749, 0.31461966037750244, -4.498487949371338, -7.520429611206055, 
602, 3082456385, -5.170607566833496, -88.03079223632812, -85.98470306396484, 9.936774253845215, 0.03099171444773674, 0.3138103485107422, 1.1175748109817505, -3.149641990661621, -5.04740047454834, 
603, 3082464718, -4.067241668701172, -88.04615783691406, -87.08479309082031, 9.881203651428223, 0.058096591383218765, 0.26715487241744995, 1.0497225522994995, -3.6934316158294678, -4.136122226715088, 
604, 3082473051, -3.36869478225708, -88.06124114990234, -87.77816009521484, 9.735502243041992, 0.10891507565975189, 0.35433992743492126, 1.1715184450149536, -3.7978358268737793, -2.5341317653656006, 
