Euler_X,Euler_Y,Euler_Z,Acc_X,Acc_Y,Acc_Z,Gyr_X,Gyr_Y,Gyr_Z,time_seconds,filtered_accel_x,filtered_accel_y,filtered_accel_z,Vel_X,Vel_Y,Vel_Z,Displacement_X,Displacement_Y,Displacement_Z,Acc_Global_X,Acc_Global_Y,Acc_Global_Z,Dy_dt,Dz_dt,Dx_dt,Vel_X_Roll_Mean,Vel_Y_Roll_Mean,Vel_Z_Roll_Mean,Vel_X_Roll_Std,Vel_Y_Roll_Std,Vel_Z_Roll_Std,Vel_X_Roll_Sum,Vel_Y_Roll_Sum,Vel_Z_Roll_Sum,Vel_X_Roll_Max,Vel_Y_Roll_Max,Vel_Z_Roll_Max,Vel_X_Roll_Min,Vel_Y_Roll_Min,Vel_Z_Roll_Min,Acc_Global_X_Magnitude,Vel_X_Magnitude
-133.72169494628906,15.148571014404297,22.179311752319336,-2.5356476306915283,-7.861167430877685,-7.063099384307861,-2.0508806705474854,5.923715114593506,-13.944366455078123,0.0,-2.5142563197617025,-7.79484880097426,-7.003513441360108,0.0,0.0,0.0,0.0,0.0,0.0,0.165566458875085,0.42251907460661625,20.668586490663632,,,,,,,,,,,,,,,,,,,20.67356771683964,0.0
-133.7269744873047,15.024134635925291,22.214916229248047,-2.4927895069122314,-7.7525506019592285,-7.045833110809326,-0.05727344378829,6.404675006866455,-14.372304916381836,0.008333333333333333,-2.4291581812181455,-7.555072318794529,-6.86772525175212,-0.020242984843484545,-0.0629589359899544,-0.057231043764600996,-0.0001686915403623712,-0.0005246577999162867,-0.0004769253647050083,0.18338361306347412,0.36343654845110684,20.570766186141064,13.034019470214737,2.0719528198242188,5.142974853515625,,,,,,,,,,,,,,,,20.5747937330894,0.08745855262206433
-133.74049377441406,14.898193359375,22.25654411315918,-2.401667356491089,-7.762441635131836,-6.917603969573975,-1.2672773599624634,5.924087047576904,-14.866569519042969,0.016666666666666666,-2.297284388335425,-7.4357484567108205,-6.623206368069767,-0.03938702141294642,-0.12492350646254458,-0.11242443016518239,-0.0004969167188035913,-0.0015656870204374916,-0.001413795616081528,0.18470102984903397,0.474376584028861,20.469155843500296,-1.1869239807128906,15.387496948242188,10.93465805053711,,,,,,,,,,,,,,,,20.475485062860038,0.17261654735467075
-133.7559814453125,14.778427124023438,22.307640075683597,-2.417267322540283,-7.999475479125977,-6.862994194030762,-1.7422038316726685,4.717336177825928,-15.207686424255373,0.025,-2.273116474471305,-7.5425832953324905,-6.4548384056692925,-0.058329658700207294,-0.187778367256982,-0.1662147502124265,-0.0009829972079719853,-0.003130506747579008,-0.0027989185345184157,0.10291299961767973,0.6640202912720559,20.60277371783303,-28.444061279296875,6.553173065185547,-1.8719959259033203,,,,,,,,,,,,,,,,20.613728408537423,0.2574692359913316
-133.75746154785156,14.657039642333984,22.381851196289062,-2.4105396270751958,-7.948530673980713,-6.941123962402344,-0.7945537567138672,2.816042423248291,-17.086490631103516,0.03333333333333333,-2.226885476825192,-7.360980456370899,-6.419982399855112,-0.07688703767375056,-0.24911987106007283,-0.2197146035445524,-0.0016237225219199068,-0.005206505673079615,-0.0046298735640563525,0.12575779027935885,0.5750758454588657,20.61844650171809,6.113376617431641,-9.375572204589844,0.8073234558104936,-0.03896934052607777,-0.12495613615391074,-0.11111696553735247,0.030339883125589894,0.0985151709661975,0.08672023252408424,-0.19484670263038883,-0.6247806807695537,-0.5555848276867623,0.0,0.0,0.0,-0.07688703767375056,-0.24911987106007283,-0.2197146035445524,20.62684812069108,0.34094989914937923
-133.754150390625,14.537711143493652,22.474123001098636,-2.343235969543457,-7.714277744293213,-7.035923480987549,-0.7100523114204407,1.2248857021331787,-18.47798538208008,0.041666666666666664,-2.1210413353362516,-6.999593788004013,-6.401304673515577,-0.09456238213488599,-0.3074498192934396,-0.2730588091571822,-0.0024117423730439565,-0.007768587500524945,-0.006905363640366204,0.2285329109245851,0.3680989908488474,20.501928310502844,28.1103515625,-11.37594223022461,8.076438903808647,-0.057881816953054964,-0.18644610001259868,-0.1657287273687889,0.029434681854804603,0.09696105634299632,0.08521671336835498,-0.2894090847652748,-0.9322305000629934,-0.8286436368439445,-0.020242984843484545,-0.0629589359899544,-0.057231043764600996,-0.09456238213488599,-0.3074498192934396,-0.2730588091571822,20.50650600681251,0.42193429435983437
-133.7506103515625,14.416391372680664,22.57195281982422,-2.290219306945801,-7.628654956817627,-7.209893703460693,-0.8645062446594238,0.8188487887382507,-18.98786163330078,0.05,-2.03083044092548,-6.790627847050425,-6.460504891770846,-0.11148596914259833,-0.3640383846855265,-0.3268963499219393,-0.0033407921158989428,-0.010802240706237667,-0.009629499889715698,0.33906593467738677,0.21378331970760403,20.546078386610436,10.274734497070312,-20.876426696777344,6.36199951171875,-0.07613041381287773,-0.2466619897517131,-0.21966178860025654,0.028536244480484318,0.09455945061207219,0.0847156017097671,-0.38065206906438864,-1.2333099487585655,-1.0983089430012827,-0.03938702141294642,-0.12492350646254458,-0.11242443016518239,-0.11148596914259833,-0.3640383846855265,-0.3268963499219393,20.54998798258978,0.501811010672742
-133.74453735351562,14.284978866577148,22.670726776123047,-2.20166015625,-7.450362205505371,-7.353277206420898,-0.5284731388092041,1.6692932844161987,-20.05019187927246,0.058333333333333334,-1.9065922847530499,-6.492281822869163,-6.4874298041950995,-0.12737423818220708,-0.41814073320943623,-0.38095826495689844,-0.004402244100750669,-0.014286746816316302,-0.012804152097689852,0.47628260729888233,0.02477220955143796,20.496366610168735,21.395130157470703,-17.20602035522461,10.627098083496094,-0.09372785716672985,-0.3053054351010914,-0.27336855555859974,0.02731653155224442,0.09104311002526842,0.0848550983258207,-0.4686392858336493,-1.526527175505457,-1.3668427777929988,-0.058329658700207294,-0.187778367256982,-0.1662147502124265,-0.12737423818220708,-0.41814073320943623,-0.38095826495689844,20.501914617977057,0.5798233083969573
-133.75103759765625,14.142189025878906,22.7615966796875,-2.092813730239868,-7.455382347106934,-7.403348922729492,-1.8110551834106443,3.176845073699951,-20.297163009643555,0.06666666666666667,-1.7640412634192235,-6.379749409950557,-6.420417004092803,-0.14207458204403395,-0.4713053116256909,-0.4344617399910051,-0.005586198951117618,-0.018214291079863727,-0.016424666597614896,0.5698248732537898,0.03062053421284811,20.5079686164907,-0.6024169921875,-6.00860595703125,13.06157112121582,-0.1104768418354952,-0.3620108239748332,-0.3270179535143155,0.025819094187697574,0.08777988554593459,0.08496960840926063,-0.552384209177476,-1.810054119874166,-1.6350897675715774,-0.07688703767375056,-0.24911987106007283,-0.2197146035445524,-0.14207458204403395,-0.4713053116256909,-0.4344617399910051,20.515906384516907,0.6565598884683622
-133.76226806640625,13.995445251464844,22.849328994750977,-2.051459550857544,-7.530290603637695,-7.390616416931152,-2.225570678710937,3.858696222305298,-20.50289535522461,0.075,-1.6905429300367625,-6.337451879497291,-6.2912995628062,-0.1561624397943403,-0.5241174106215016,-0.48688923634772346,-0.006887552616070454,-0.02258193616837624,-0.02048207690051259,0.5671178454088699,0.09880898280189566,20.5432934377379,-8.988990783691406,1.5279006958007812,4.962501525878906,-0.12633192225961315,-0.417010331887119,-0.3804528800749497,0.02433353416403704,0.08548491395721933,0.08462815531821632,-0.6316596112980657,-2.085051659435595,-1.9022644003747486,-0.09456238213488599,-0.3074498192934396,-0.2730588091571822,-0.1561624397943403,-0.5241174106215016,-0.48688923634772346,20.55135740370131,0.7322205242892185
-133.77244567871094,13.848283767700195,22.93523406982422,-1.9860937595367432,-7.465481758117676,-7.499567985534668,-2.055517196655273,3.952700614929199,-20.282793045043945,0.08333333333333333,-1.5942143262379829,-6.156373381113965,-6.284066327134445,-0.16944755917965681,-0.5754205221307847,-0.5392564557405105,-0.00829961560923426,-0.02737710718613278,-0.02497588069835018,0.6537304334508077,0.0042968861056747005,20.55681926568346,7.777061462402344,-13.074188232421875,7.843894958496094,-0.14130895766856727,-0.470604472454588,-0.4336924093916153,0.02289421356330288,0.08360518075231525,0.0839055279121005,-0.7065447883428364,-2.35302236227294,-2.1684620469580764,-0.11148596914259833,-0.3640383846855265,-0.3268963499219393,-0.16944755917965681,-0.5754205221307847,-0.5392564557405105,20.56721177663187,0.8066094331577243
-133.78713989257812,13.691553115844728,23.00986862182617,-1.8800890445709229,-7.360154151916504,-7.650229454040527,-2.2152223587036133,5.789575099945068,-20.31432342529297,0.09166666666666666,-1.4589644259616685,-5.937228042873918,-6.317366175274603,-0.1816055960626707,-0.6248974224880673,-0.5919011738677988,-0.009812995576423183,-0.032584585706866676,-0.029908390480581835,0.7975676200297632,-0.12816814485627992,20.56081733976923,12.639312744140625,-18.079376220703125,12.720565795898438,-0.15533288305258178,-0.5227762800150961,-0.48669337418078734,0.021492068677139445,0.08185322357959732,0.0832761279610607,-0.7766644152629089,-2.613881400075481,-2.4334668709039367,-0.12737423818220708,-0.41814073320943623,-0.38095826495689844,-0.1816055960626707,-0.6248974224880673,-0.5919011738677988,20.576679782249393,0.8796728828261028
-133.80882263183594,13.520306587219238,23.05986213684082,-1.8271806240081787,-7.094165325164795,-7.6518096923828125,-2.3652961254119877,8.976471900939941,-19.477069854736328,0.1,-1.3784096615258423,-5.561553026280572,-6.20132691679601,-0.19309234324205274,-0.6712436977070722,-0.6435788981744323,-0.011422098436773623,-0.03817828318775894,-0.03527154796536877,0.845420402205906,-0.3041474360731701,20.36503296738713,31.918659210205078,-0.18962860107421875,6.349010467529297,-0.1684765040645509,-0.5733968729146233,-0.539217500824294,0.020173951077891557,0.0791857865636127,0.08273283639312297,-0.8423825203227545,-2.8669843645731166,-2.69608750412147,-0.14207458204403395,-0.4713053116256909,-0.4344617399910051,-0.19309234324205274,-0.6712436977070722,-0.6435788981744323,20.384842630790665,0.9497613136496907
-133.85630798339844,13.353592872619627,23.082077026367188,-1.7759556770324707,-6.940495014190674,-7.472525596618652,-4.635217666625977,11.038074493408203,-16.9398136138916,0.10833333333333334,-1.3006623431937203,-5.302704035563649,-5.906954329544373,-0.20393119610200042,-0.7154328980034359,-0.6928035175873021,-0.01312152507095696,-0.04414022400445424,-0.04104491061192962,0.8009770072122304,-0.28863362385975966,20.12689172503062,18.44043731689453,21.51409149169922,6.146993637084961,-0.18084782687614417,-0.6222223901901723,-0.5908858563435535,0.018859207094429595,0.07568593829980147,0.08161753668429335,-0.9042391343807209,-3.111111950950862,-2.9544292817177675,-0.1561624397943403,-0.5241174106215016,-0.48688923634772346,-0.20393119610200042,-0.7154328980034359,-0.6928035175873021,20.14489126418932,1.016567203027191
-133.91749572753906,13.196762084960938,23.081172943115234,-1.8109409809112549,-7.517990112304687,-7.341214656829834,-5.673823356628418,12.086463928222656,-14.099474906921388,0.11666666666666667,-1.3094989976191131,-5.772376980688149,-5.6641887918463745,-0.21484368774882637,-0.7635360395091705,-0.7400050908526885,-0.014911889135530512,-0.05050302433369733,-0.047211619702368694,0.6136440134400165,0.18158164346991687,20.453476139599886,-69.29941177368154,15.757312774658203,-4.198236465454102,-0.1925840764670414,-0.6701061159677061,-0.6415090272445465,0.017890858124468438,0.07381420852599904,0.07945660945970062,-0.962920382335207,-3.3505305798385305,-3.2075451362227323,-0.16944755917965681,-0.5754205221307847,-0.5392564557405105,-0.21484368774882637,-0.7635360395091705,-0.7400050908526885,20.46348496863762,1.0847822953398347
-133.9575958251953,13.054694175720217,23.07910919189453,-1.8231160640716555,-7.714152812957764,-7.155251502990723,-3.069047212600708,11.054760932922363,-12.81874942779541,0.125,-1.2953618560715485,-5.855148024383902,-5.3704336634456595,-0.22563836988275593,-0.8123289397123696,-0.7847587047147356,-0.01679220888455348,-0.05727243216463374,-0.05375127557499149,0.4722547125957003,0.42282370347451714,20.469630644539357,-23.539524078369247,22.31557846069336,-1.4610099792480735,-0.20382223860766127,-0.7174877994840231,-0.6906094770393916,0.01736474630715803,0.07387658588946115,0.07626273994089504,-1.0191111930383063,-3.5874389974201155,-3.4530473851969576,-0.1816055960626707,-0.6248974224880673,-0.5919011738677988,-0.22563836988275593,-0.8123289397123696,-0.7847587047147356,20.479442939729914,1.1517973801338148
-133.98239135742188,12.935629844665527,23.082843780517575,-1.8545364141464236,-7.601549625396728,-7.070501804351807,-1.4305808544158936,8.567642211914062,-11.195394515991213,0.13333333333333333,-1.3003385782596661,-5.629455582871628,-5.181133853114447,-0.23647452470158647,-0.8592410695696332,-0.827934820157356,-0.018762829923733366,-0.06443277441104735,-0.06065073240963613,0.3998169450679621,0.37823123216559973,20.341474034035183,13.512382507324325,10.169963836669922,-3.770442008972168,-0.21479602433544437,-0.7643565289003362,-0.7378162062973028,0.017150877327698218,0.07478071685425419,0.0728638564798647,-1.0739801216772218,-3.821782644501681,-3.689081031486514,-0.19309234324205274,-0.6712436977070722,-0.6435788981744323,-0.23647452470158647,-0.8592410695696332,-0.827934820157356,20.348918357786896,1.2164256997026173
-133.9950714111328,12.840461730957031,23.08555793762207,-1.9277993440628047,-7.63926887512207,-7.077503681182861,0.0881770178675651,6.750926494598389,-9.14266872406006,0.14166666666666666,-1.3465129552350348,-5.555725179800768,-5.085175085071944,-0.24769546599521175,-0.9055387794013062,-0.8703112791996221,-0.020826958807026796,-0.07197893090605822,-0.06790332640296631,0.3153302599008243,0.36774816002904004,20.38975546657487,-4.526309967041122,-0.8402252197265625,-8.79155158996574,-0.22571664888607618,-0.811215545239183,-0.7831626825023409,0.017260023595584196,0.07525326224725466,0.0700523481129451,-1.128583244430381,-4.056077726195915,-3.9158134125117043,-0.20393119610200042,-0.7154328980034359,-0.6928035175873021,-0.24769546599521175,-0.9055387794013062,-0.8703112791996221,20.395509306431492,1.2801543842741294
-134.00042724609375,12.765347480773926,23.089393615722656,-1.954638123512268,-7.331021785736084,-6.834528923034668,0.901787519454956,4.901885986328125,-7.405255317687988,0.15,-1.345663086902028,-5.139307742415897,-4.742153369958189,-0.2589093250527287,-0.9483663439214387,-0.9098292239492737,-0.022984536515799535,-0.07988198377207022,-0.0754852366025436,0.21413672815254062,0.28292280957052507,20.015360177970344,36.98965072631836,29.156970977783203,-3.2206535339356,-0.23671227467622186,-0.8578022344227836,-0.8265678237747351,0.017423134933135447,0.07320628719184978,0.06724754363199974,-1.1835613733811092,-4.289011172113918,-4.132839118873676,-0.21484368774882637,-0.7635360395091705,-0.7400050908526885,-0.2589093250527287,-0.9483663439214387,-0.9098292239492737,20.01850501182344,1.3394857138597311
-134.01991271972656,12.708809852600098,23.089618682861328,-2.002121925354004,-7.2413434982299805,-6.898036956787109,-0.6609752774238586,3.740894556045532,-5.599835395812988,0.15833333333333333,-1.3650814418889803,-4.9457884502804,-4.708029582007337,-0.27028500373513686,-0.9895812476737753,-0.9490628037993348,-0.025236911546925676,-0.08812849416935167,-0.08339409330087139,0.19914306333569937,0.16284625402481565,20.00618972255896,10.761394500732422,-7.620964050292969,-5.698056221008301,-0.24780053787348394,-0.9030112760557045,-0.8683793663640644,0.017666406412995113,0.07017290705952728,0.06492267791370723,-1.2390026893674198,-4.515056380278523,-4.341896831820322,-0.22563836988275593,-0.8123289397123696,-0.7847587047147356,-0.27028500373513686,-0.9895812476737753,-0.9490628037993348,20.007843563891345,1.3975139478900178
-134.03433227539062,12.666358947753906,23.08595848083496,-2.16445541381836,-7.448315143585205,-6.810674667358398,0.0126918535679578,2.8114826679229736,-3.975022077560425,0.16666666666666666,-1.4978335631090265,-5.0488682361162915,-4.5241201091718874,-0.28276695009437874,-1.031655149641411,-0.9867638047091005,-0.027593302797712164,-0.09672562041636343,-0.09161712500678056,-0.017758435745953313,0.2977736032112943,20.127876266962897,-24.836597442626953,10.483474731445312,-19.48001861572271,-0.25922625391580845,-0.946876518041513,-0.9087803863629373,0.018215110625175925,0.06782718915527564,0.06269183466130057,-1.2961312695790423,-4.734382590207565,-4.543901931814687,-0.23647452470158647,-0.8592410695696332,-0.827934820157356,-0.28276695009437874,-1.031655149641411,-0.9867638047091005,20.13008662422936,1.4553254969701104
-134.0401153564453,12.640026092529297,23.074886322021484,-2.183038711547852,-7.095461368560791,-6.675207138061523,1.2795591354370115,2.170192003250122,-2.07279372215271,0.175,-1.4855769791247346,-4.5942952156638714,-4.2948621188586,-0.29514675825375153,-1.0699409431052767,-1.0225543223662554,-0.030052859116493427,-0.10564179494224074,-0.10013841102649935,-0.05120255096129606,0.12383953592985415,19.79256792879459,42.34245300292969,16.256103515625,-2.2299957275390625,-0.27096070062624156,-0.9890164927486417,-0.9477042868047174,0.018783744781090156,0.0651692103309574,0.06032043050115267,-1.3548035031312078,-4.9450824637432085,-4.738521434023587,-0.24769546599521175,-0.9055387794013062,-0.8703112791996221,-0.29514675825375153,-1.0699409431052767,-1.0225543223662554,19.793021577006186,1.5091396796952292
-134.04776000976562,12.631120681762695,23.05291557312012,-2.164117813110352,-7.033822059631348,-6.611640453338623,1.305583357810974,1.556039333343506,0.412312388420105,0.18333333333333332,-1.436098245747265,-4.435359781670473,-4.140040248540554,-0.30711424363497875,-1.1069022746191972,-1.05705465777076,-0.032612144480118246,-0.11486598056406738,-0.10894719984125568,-0.0550234177582834,0.12670536623079426,19.70205571827557,7.396717071533203,7.628002166748047,2.2705078125,-0.2828444561541949,-1.0292891917922198,-0.9850529625189448,0.019176845246360638,0.06286330686676761,0.05819670407246833,-1.4142222807709746,-5.146445958961099,-4.925264812594724,-0.2589093250527287,-0.9483663439214387,-0.9098292239492737,-0.30711424363497875,-1.1069022746191972,-1.05705465777076,19.702539972104322,1.5610625720052018
-134.05068969726562,12.637617111206056,23.02313995361328,-2.2853832244873047,-7.122603893280029,-6.516258716583252,2.1115221977233887,1.008189082145691,2.286288022994995,0.19166666666666665,-1.526220071701275,-4.427508205200419,-3.9555815252589284,-0.31983274423248936,-1.1437981763292007,-1.0900178371479177,-0.03527741734872233,-0.1243976320334774,-0.11803068181748833,-0.2144812611820953,0.20103867569055528,19.726131887195805,-10.653820037841797,11.445808410644531,-14.551849365234322,-0.29502913999014707,-1.0683755582737722,-1.0210906851586738,0.019518682893700963,0.06068826371182383,0.0557064903215539,-1.4751456999507353,-5.34187779136886,-5.105453425793369,-0.27028500373513686,-0.9895812476737753,-0.9490628037993348,-0.31983274423248936,-1.1437981763292007,-1.0900178371479177,19.728322229514724,1.6120502900833815
-134.04759216308594,12.651801109313965,22.99221611022949,-2.3154971599578857,-6.953560829162598,-6.378177165985107,2.829514980316162,0.3821260035037994,3.1312508583068848,0.2,-1.5241967916527304,-4.163397568737645,-3.7312138609025194,-0.3325343841629288,-1.178493156068681,-1.121111285988772,-0.03804853721674673,-0.13421840833404974,-0.12737327586739475,-0.2756686832355881,0.15472108006074584,19.520548255778316,20.285167694091797,16.569786071777344,-3.6136722564697266,-0.30747901607570544,-1.1061579399527535,-1.0555003815965611,0.019642364396528878,0.058120696709380304,0.05317147051836786,-1.5373950803785272,-5.530789699763767,-5.277501907982805,-0.28276695009437874,-1.031655149641411,-0.9867638047091005,-0.3325343841629288,-1.178493156068681,-1.121111285988772,19.523107745482065,1.6602155736899764
-134.05917358398438,12.680227279663086,22.960697174072266,-2.29070258140564,-7.122084617614746,-6.199760913848877,1.11897075176239,-0.6781625747680664,4.317266941070557,0.20833333333333334,-1.4675128209274142,-4.23773627855157,-3.469981669773669,-0.34476365767065725,-1.2138076250566108,-1.1500277999035526,-0.04092156769733554,-0.14433347187618817,-0.13695684086659102,-0.34596020866409105,0.3936483980759776,19.512257236258204,-20.222854614257812,21.409950256347656,2.975349426269478,-0.3198783575909611,-1.1425884350357933,-1.0881531806354516,0.019710592711045978,0.05681977125689174,0.050469075909290985,-1.5993917879548056,-5.712942175178966,-5.440765903177258,-0.29514675825375153,-1.0699409431052767,-1.0225543223662554,-0.34476365767065725,-1.2138076250566108,-1.1500277999035526,19.5192937879729,1.7072653194061624
-134.0560760498047,12.71981430053711,22.9354248046875,-2.3399341106414795,-7.25256872177124,-6.128040313720703,2.6867153644561768,-2.2147605419158936,4.862260818481445,0.21666666666666667,-1.4849402782731973,-4.272386034837789,-3.318328446555796,-0.3571381599896006,-1.2494108420135923,-1.1776805369581842,-0.04389771903058221,-0.1547452288929681,-0.14677084534124255,-0.4301775318333781,0.5120273953212301,19.56605955446616,-15.658092498779297,8.60647201538086,-5.907783508300728,-0.3322766379381309,-1.1784824148174564,-1.1191784235538373,0.01976160387757827,0.05613694249031983,0.047664502844733544,-1.6613831896906546,-5.892412074087282,-5.5958921177691865,-0.30711424363497875,-1.1069022746191972,-1.05705465777076,-0.3571381599896006,-1.2494108420135923,-1.1776805369581842,19.577484804013263,1.7537122239957126
-134.03955078125,12.77361297607422,22.916614532470703,-2.4060120582580566,-7.22534704208374,-6.139294624328613,4.157101154327393,-3.863190889358521,5.473417282104492,0.225,-1.5185329983783546,-4.149348612723355,-3.2509111941872515,-0.3697926016427535,-1.2839887471196203,-1.2047714635764113,-0.046979324044271825,-0.16544513511896494,-0.15681060753771264,-0.47169970215172835,0.4622488444502683,19.56957467229674,3.2666015625,-1.3505172729492188,-7.929353713989258,-0.3448123095396859,-1.213899709317541,-1.1487217847149673,0.019689274265233626,0.055545862098741315,0.04525034421828465,-1.7240615476984293,-6.069498546587705,-5.743608923574837,-0.31983274423248936,-1.1437981763292007,-1.0900178371479177,-0.3697926016427535,-1.2839887471196203,-1.2047714635764113,19.580715703410938,1.799124217614664
-134.0059051513672,12.831141471862791,22.898290634155277,-2.3766534328460693,-7.129895210266113,-6.216324329376221,6.173402786254883,-4.29327917098999,5.845873355865479,0.23333333333333334,-1.4566776249359767,-3.9600081406064485,-3.249267004006783,-0.3819315818505533,-1.3169888149580073,-1.2318486886098012,-0.05016208722635977,-0.17642004191028166,-0.16707601327612764,-0.3896573260218161,0.35882796240304876,19.548890341250615,11.454219818115234,-9.24356460571289,3.5230350494384766,-0.3572320770632987,-1.2485378370433022,-1.177087955007344,0.01957855109306651,0.05489879438083027,0.043678098669122825,-1.7861603853164933,-6.242689185216511,-5.885439775036721,-0.3325343841629288,-1.178493156068681,-1.121111285988772,-0.3819315818505533,-1.3169888149580073,-1.2318486886098012,19.55606565525301,1.8433074793883546
-133.9684295654297,12.888051986694336,22.88298988342285,-2.30635142326355,-7.095536231994629,-6.221841335296631,6.581488609313965,-4.409055709838867,5.4568705558776855,0.24166666666666667,-1.355018860983722,-3.833734131006863,-3.1761583410225676,-0.3932234056920843,-1.3489365993830646,-1.2583166747849892,-0.05343894894046047,-0.18766118023847386,-0.17756198556600256,-0.3085193465301049,0.3562285610768361,19.513356013969286,4.123077392578125,-0.6620407104492188,8.436241149902344,-0.3693698813691298,-1.282626525706179,-1.2045290327665878,0.019248681036932534,0.053429793118216724,0.042809925580275056,-1.846849406845649,-6.413132628530895,-6.022645163832939,-0.34476365767065725,-1.2138076250566108,-1.1500277999035526,-0.3932234056920843,-1.3489365993830646,-1.2583166747849892,19.519045722135637,1.8861642160695289
-133.929931640625,12.94195556640625,22.871639251708984,-2.2171196937561035,-6.876518249511719,-6.170966625213623,6.569949626922607,-4.570002555847168,4.970801830291748,0.25,-1.2360667096329454,-3.525803006830741,-3.0477869484586915,-0.4035239616056922,-1.378318291106654,-1.2837148993554783,-0.056801648620507905,-0.19914716599769597,-0.18825960972729822,-0.21240175499088182,0.26478112961992534,19.30566893429227,26.28215789794922,6.1049652099609375,10.707807540893555,-0.38112194215613676,-1.3155286589161879,-1.2312664526569728,0.018388360279297605,0.05105656715991718,0.04200097583575837,-1.9056097107806838,-6.577643294580939,-6.156332263284864,-0.3571381599896006,-1.2494108420135923,-1.1776805369581842,-0.4035239616056922,-1.378318291106654,-1.2837148993554783,19.308652893265847,1.926270189256005
-133.9028778076172,12.995996475219728,22.86290740966797,-2.1508677005767822,-7.03823709487915,-6.100477695465088,5.153878688812256,-4.720779895782471,4.678887844085693,0.2583333333333333,-1.1416834636261486,-3.599933532656654,-2.9015641060893778,-0.41303799046924344,-1.4083177372121263,-1.3078946002395564,-0.060243631874418266,-0.21088314714113035,-0.19915873139596119,-0.192186284369158,0.4454107636081698,19.356911284061812,-19.406261444091797,8.458671569824219,7.950239181518555,-0.39230190825206535,-1.3473100379558947,-1.2573092653132474,0.01710980200372831,0.04902820430970784,0.04082159376492853,-1.9615095412603267,-6.736550189779473,-6.286546326566237,-0.3697926016427535,-1.2839887471196203,-1.2047714635764113,-0.41303799046924344,-1.4083177372121263,-1.3078946002395564,19.362988942187545,1.965845242091285
-133.86378479003906,13.046648025512695,22.862770080566406,-2.2561492919921875,-7.233168601989746,-6.064713001251221,6.343199729919434,-5.239059448242188,3.784567832946777,0.26666666666666666,-1.218769369423652,-3.705100570228473,-2.791687981684783,-0.4231944018811072,-1.4391935752973635,-1.3311586667535962,-0.06377025189009417,-0.22287642693527504,-0.21025172028557448,-0.31480064400042285,0.5614008984665798,19.493770496343384,-23.391780853271484,4.2917633056640625,-12.633790969848633,-0.4029822682997361,-1.3783510035914432,-1.2825867059486842,0.016188793371311846,0.0480373555022821,0.039256778161242525,-2.0149113414986806,-6.891755017957216,-6.412933529743421,-0.3819315818505533,-1.3169888149580073,-1.2318486886098012,-0.4231944018811072,-1.4391935752973635,-1.3311586667535962,19.504393314798847,2.005580974439558
-133.79954528808594,13.096298217773438,22.873794555664062,-2.2597756385803223,-6.923421382904053,-6.199211120605469,9.079312324523926,-6.009202480316162,2.7076425552368164,0.275,-1.1935473970707853,-3.30741092385297,-2.8519561576671997,-0.4331406301900304,-1.4667553329961383,-1.3549249680674895,-0.06737975714167775,-0.2350993880435762,-0.2215427616861369,-0.21235059662820463,0.2551001172558464,19.368263401586102,37.1696662902832,-16.139774322509766,-0.4351615905761719,-0.4132240779676315,-1.4083043071990695,-1.307201961840222,0.015733961586591093,0.04688911220413018,0.038056872494540844,-2.0661203898381575,-7.041521535995347,-6.53600980920111,-0.3932234056920843,-1.3489365993830646,-1.2583166747849892,-0.4331406301900304,-1.4667553329961383,-1.3549249680674895,19.37110724865597,2.0432336336030485
-133.73150634765625,13.13668155670166,22.89101791381836,-2.053064346313477,-6.654747486114502,-6.258347511291504,9.342114448547363,-5.8433756828308105,1.5006484985351562,0.2833333333333333,-0.9599734859024616,-2.956514739684204,-2.8359464968136745,-0.4411404092392176,-1.49139295582684,-1.3785578555409368,-0.07105592721867122,-0.24752766267546653,-0.2330307438156447,0.040372666605499145,0.10181390236322974,19.17245987244892,32.240867614746094,-7.096366882324219,24.80535507202143,-0.42280747867705826,-1.4367955784878244,-1.3312501979914113,0.015085730038990492,0.045041068688424994,0.03742861920276189,-2.114037393385291,-7.183977892439122,-6.656250989957057,-0.4035239616056922,-1.378318291106654,-1.2837148993554783,-0.4411404092392176,-1.49139295582684,-1.3785578555409368,19.172772715066206,2.0782876534366674
-133.67063903808594,13.171031951904297,22.91063499450684,-1.940118670463562,-6.50323486328125,-6.290987491607666,8.433985710144043,-5.460211753845215,0.6968224048614502,0.2916666666666667,-0.8231182968417141,-2.727119038473538,-2.793393381772982,-0.4479997283795652,-1.5141189478141195,-1.4018361337223784,-0.07478925828850093,-0.26014532057391754,-0.24471271159666452,0.18224951059848601,0.012056654809985443,19.061988300630492,18.181514739990234,-3.916797637939453,13.5534811019898,-0.4317026320318328,-1.4639557098293177,-1.3548744448647914,0.013941786575294263,0.04179036404022087,0.03720164864168783,-2.158513160159164,-7.319778549146588,-6.774372224323957,-0.41303799046924344,-1.4083177372121263,-1.3078946002395564,-0.4479997283795652,-1.5141189478141195,-1.4018361337223784,19.062863326909007,2.111493426598247
-133.6278839111328,13.20223617553711,22.922853469848636,-1.9707590341567995,-6.3525238037109375,-6.207144737243652,6.444094181060791,-4.655669689178467,1.1168447732925415,0.3,-0.8307756343805588,-2.501834451050711,-2.635519127787326,-0.45492285866606985,-1.534967568239542,-1.423798793120606,-0.07858028211071817,-0.2729367169759137,-0.25657770153933623,0.14378077718747337,-0.05851229101632366,18.906317883431058,18.0853271484375,10.06113052368164,-3.676843643188503,-0.4400796056711981,-1.4892856760348006,-1.3780552834410014,0.012424122656716254,0.03783121133576349,0.03671700642289137,-2.2003980283559903,-7.4464283801740025,-6.890276417205007,-0.4231944018811072,-1.4391935752973635,-1.3311586667535962,-0.45492285866606985,-1.534967568239542,-1.423798793120606,18.906955135860287,2.1424946315395554
-133.59605407714844,13.231008529663086,22.927209854125977,-1.9389694929122925,-6.565513610839844,-6.25039529800415,5.366502285003662,-3.707378387451172,1.4510592222213743,0.30833333333333335,-0.7762377084871785,-2.6404593524643944,-2.6058024768221397,-0.46139150623679637,-1.5569713961767453,-1.4455138137607906,-0.08242521132935814,-0.2859114786107199,-0.26862364998734284,0.17219137042137167,0.0736165861982196,19.078114359462184,-25.55877685546875,-5.190067291259766,3.814744949340847,-0.4477190265423359,-1.512841240210677,-1.4009263128424403,0.011121134582515572,0.03543521321069594,0.0358067555407071,-2.2385951327116795,-7.564206201053385,-7.004631564212201,-0.4331406301900304,-1.4667553329961383,-1.3549249680674895,-0.46139150623679637,-1.5569713961767453,-1.4455138137607906,19.079033434179212,2.1740635308825014
-133.56610107421875,13.255499839782717,22.92914581298828,-1.8786067962646484,-6.4633073806762695,-6.195219993591309,5.189277648925781,-3.2275218963623047,1.3650978803634644,0.31666666666666665,-0.6941276279047766,-2.4636878928793235,-2.4784753998394624,-0.4671759031360028,-1.5775021286174062,-1.4661677754261195,-0.08631834385549149,-0.2990573296825316,-0.2808417147825605,0.2199937065358641,0.05562512583996799,18.955095143055075,12.264747619628906,6.621036529541016,7.243523597717285,-0.45452608113153037,-1.5349905993349306,-1.4231748743141661,0.010357110881956927,0.034010169210232935,0.03461873499478227,-2.272630405657652,-7.674952996674653,-7.115874371570831,-0.4411404092392176,-1.49139295582684,-1.3785578555409368,-0.4671759031360028,-1.5775021286174062,-1.4661677754261195,18.956453340955164,2.203727350640583
-133.54957580566406,13.283177375793455,22.931072235107425,-1.8529672622680664,-6.457675457000732,-6.177605628967285,3.5966227054595947,-3.411316394805908,1.553247094154358,0.325,-0.6476819713286315,-2.385138466315315,-2.3900332451698096,-0.47257325289707475,-1.597378282503367,-1.486084719135868,-0.09025645429630044,-0.31236881537005967,-0.2932257541086927,0.24115178483351146,0.07142931889861083,18.933300661444214,0.6758308410644531,2.1137237548828125,3.0767440795898438,-0.4608126498631018,-1.556187664670236,-1.4446802470331526,0.00972109109008807,0.03305925375880195,0.03334813406670328,-2.304063249315509,-7.7809383233511795,-7.223401235165762,-0.4479997283795652,-1.5141189478141195,-1.4018361337223784,-0.47257325289707475,-1.597378282503367,-1.486084719135868,18.934971092335225,2.2323509242984763
-133.54061889648438,13.306917190551758,22.93543243408203,-1.7972524166107178,-6.471695899963379,-6.19149112701416,2.6007797718048096,-3.368349075317383,1.106471061706543,0.3333333333333333,-0.5720556756324231,-2.3268966879576043,-2.333823068329732,-0.4773403835273449,-1.6167690882363472,-1.5055332447052823,-0.09423429082569498,-0.32584189110536255,-0.3057718644812367,0.2994442865070844,0.0941570983418989,18.939567021859308,-1.6824531555175781,-1.666259765625,6.685781478881836,-0.46668078089265774,-1.5767176927546815,-1.4654196692297332,0.008871564999478072,0.03226677359913523,0.03226934806430485,-2.333403904463289,-7.883588463773408,-7.3270983461486665,-0.45492285866606985,-1.534967568239542,-1.423798793120606,-0.4773403835273449,-1.6167690882363472,-1.5055332447052823,18.94216807589328,2.260182841571769
-133.53504943847656,13.32904815673828,22.936452865600582,-1.828313946723938,-6.29167366027832,-6.226192474365234,2.3074963092803955,-2.8756589889526367,1.1468645334243774,0.3416666666666667,-0.5836150747985251,-2.076735129482004,-2.2987152263223,-0.4822038424839993,-1.6340752143153638,-1.5246892049246348,-0.09825265617972831,-0.33945918455799057,-0.3184776078556087,0.31068714650474183,-0.06398545288849553,18.842870054522148,21.60266876220703,-4.164161682128906,-3.727383613586426,-0.4721369776562437,-1.596539221969846,-1.485597751590539,0.008195806132210678,0.030606069636625585,0.031265191477830835,-2.3606848882812184,-7.98269610984923,-7.427988757952695,-0.46139150623679637,-1.5569713961767453,-1.4455138137607906,-0.4822038424839993,-1.6340752143153638,-1.5246892049246348,18.845539857822914,2.2863506999932994
-133.54600524902344,13.350102424621582,22.930612564086918,-1.824642300605774,-6.124821186065674,-6.231210708618164,0.492420881986618,-2.2846362590789795,1.692473292350769,0.35,-0.5604086412987173,-1.8433761085970115,-2.2342850316011686,-0.4868739144948219,-1.6494366818870057,-1.5433082468546444,-0.10230993880051849,-0.3532044902403823,-0.3313385099127307,0.3375966879258694,-0.17955632348606096,18.72765266113422,20.022296905517578,-0.6021881103515625,0.4405975341796875,-0.4772334593078488,-1.615032279111898,-1.5051566382093098,0.007754458038113963,0.02858972109782775,0.03050031866817679,-2.3861672965392438,-8.07516139555949,-7.525783191046549,-0.4671759031360028,-1.5775021286174062,-1.4661677754261195,-0.4868739144948219,-1.6494366818870057,-1.5433082468546444,18.73155589354739,2.310733199869574
-133.57142639160156,13.374314308166504,22.915027618408203,-1.9099876880645752,-6.263390064239502,-6.217718124389648,-0.951773762702942,-1.6441775560379028,2.665301561355591,0.35833333333333334,-0.6257294359198076,-1.9163546497252675,-2.152110185168744,-0.49208832646082035,-1.6654063039680496,-1.5612424983977173,-0.10641067485435865,-0.3670828761067827,-0.34434886406604504,0.2414739448570312,-0.10174869822451994,18.83604366686206,-16.628265380859375,1.619110107421875,-10.241446495056152,-0.48221594397281226,-1.6326131141820266,-1.5241715828036295,0.007679735553049644,0.026707161890867564,0.029743610480922514,-2.411079719864061,-8.163065570910133,-7.620857914018147,-0.47257325289707475,-1.597378282503367,-1.486084719135868,-0.49208832646082035,-1.6654063039680496,-1.5612424983977173,18.837866213655133,2.335210315397454
-133.60592651367188,13.398764610290527,22.89022445678711,-1.9926486015319824,-6.262710571289063,-6.229100704193115,-1.803037166595459,-0.962480366230011,3.513798475265503,0.36666666666666664,-0.6871523014899312,-1.8495931931345542,-2.095518367719622,-0.4978145956399031,-1.6808195805775041,-1.5787051514620476,-0.11055912981802452,-0.3810897059449286,-0.35750474032822877,0.17381583826511923,-0.13408908169335876,18.862386199474763,0.0815391540526278,-1.3659095764160156,-9.919309616088867,-0.48726421252137797,-1.6493013737968538,-1.5426956692688654,0.008044015145063492,0.025213934535865016,0.0289236991387752,-2.43632106260689,-8.24650686898427,-7.713478346344327,-0.4773403835273449,-1.6167690882363472,-1.5055332447052823,-0.4978145956399031,-1.6808195805775041,-1.5787051514620476,18.863663614621554,2.3590853713542597
-133.65130615234375,13.428329467773438,22.85396957397461,-2.076513290405273,-6.118738651275635,-6.166866779327393,-2.769731283187866,-0.3474442958831787,4.7953948974609375,0.375,-0.7485887885029001,-1.6414371893310866,-1.9664249646592609,-0.504052835544094,-1.69449822382193,-1.5950920261675414,-0.1147595701142253,-0.395210524476778,-0.37079717387962496,0.0898052655018838,-0.22096052155391485,18.73884244815747,17.276630401611435,7.468070983886719,-10.063762664794869,-0.49260670292472775,-1.6648472009139705,-1.5606074255613172,0.008652877861767794,0.02407806015721614,0.02786798717565602,-2.4630335146236386,-8.324236004569853,-7.8030371278065855,-0.4822038424839993,-1.6340752143153638,-1.5246892049246348,-0.504052835544094,-1.69449822382193,-1.5950920261675414,18.740360317631716,2.3811157182083758
-133.71348571777344,13.460803985595703,22.813194274902344,-2.080371141433716,-6.398630619049072,-6.176767349243164,-4.677786827087402,-0.2871740162372589,5.49474048614502,0.3833333333333333,-0.7295037297992417,-1.8566617028628958,-1.9105858734910397,-0.510132033292421,-1.7099704046791206,-1.6110135751133001,-0.11901067039166215,-0.409460277849104,-0.38422228700556915,0.05991236314336466,-0.021236848101519993,18.943391061201982,-33.5870361328125,-1.1880683898925781,-0.46294212341313923,-0.4981923410864121,-1.6800262389867222,-1.5778722995990502,0.009252163421923075,0.023749654199979438,0.026771163582050943,-2.4909617054320603,-8.40013119493361,-7.88936149799525,-0.4868739144948219,-1.6494366818870057,-1.5433082468546444,-0.510132033292421,-1.7099704046791206,-1.6110135751133001,18.943497707461574,2.4040794944154555
-133.77903747558594,13.496429443359377,22.777362823486328,-2.1326587200164795,-6.504263877868652,-6.175496578216553,-5.196168422698975,-0.8977149128913879,5.289596080780029,0.39166666666666666,-0.7586050433212406,-1.8950442263631224,-1.844173281817124,-0.5164537419867646,-1.7257624398988134,-1.6263816857951094,-0.12331445157488519,-0.42384163151492743,-0.3977754677205284,0.0018988531916659043,0.04566923963601646,19.028912653425092,-12.67599105834961,0.15249252319335938,-6.274509429931641,-0.5041083065848007,-1.6952913905890834,-1.5944869873871432,0.009653870407606659,0.023701999396535518,0.0257149195685555,-2.5205415329240033,-8.476456952945417,-7.972434936935716,-0.49208832646082035,-1.6654063039680496,-1.5612424983977173,-0.5164537419867646,-1.7257624398988134,-1.6263816857951094,19.028967550993773,2.426952379934015
-133.84764099121094,13.534461975097656,22.749244689941406,-2.170315980911255,-6.62120246887207,-6.173588275909424,-5.7960286140441895,-1.828305959701538,4.956124305725098,0.4,-0.7725502220380718,-1.9435471147219765,-1.7778173305143836,-0.5228916605037486,-1.7419586658548298,-1.6411968302160627,-0.1276718820790831,-0.43835795373038433,-0.41145210797232895,-0.04430546953768078,0.12726363796655052,19.11836327090124,-14.032630920410156,0.22899627685546875,-4.518871307373047,-0.5102689733933863,-1.7106018629664397,-1.6104778537508122,0.009891337624646522,0.02428889899659354,0.02471387609876211,-2.5513448669669314,-8.553009314832199,-8.05238926875406,-0.4978145956399031,-1.6808195805775041,-1.5787051514620476,-0.5228916605037486,-1.7419586658548298,-1.6411968302160627,19.118838175117364,2.449767890572974
-133.9131622314453,13.57685089111328,22.733455657958984,-2.1834678649902344,-6.757933139801025,-6.203098773956299,-5.746516227722168,-3.1599133014678955,4.257265567779541,0.4083333333333333,-0.761799439425447,-2.0104066068089317,-1.743310549514649,-0.5292399891656273,-1.7587120542449042,-1.6557244181286848,-0.13208221532213,-0.45301388751575855,-0.4252498114567347,-0.056418727235804836,0.21317878904679793,19.23692942426333,-16.40768051147461,-3.541259765625,-1.578226089477539,-0.5165540520985311,-1.7261803576999195,-1.6258817070841396,0.00998287386695126,0.025367110239529672,0.02395024100607906,-2.5827702604926555,-8.630901788499598,-8.129408535420698,-0.504052835544094,-1.69449822382193,-1.5950920261675414,-0.5292399891656273,-1.7587120542449042,-1.6557244181286848,19.238193312859984,2.4727689751907547
-133.96743774414062,13.62116527557373,22.72606468200684,-2.186085700988769,-7.030198097229004,-6.310939788818359,-4.660920143127441,-4.104937553405762,3.816354990005493,0.4166666666666667,-0.7406218765248718,-2.2100685275480023,-1.7866368735600888,-0.5354118381366679,-1.7771292919744708,-1.6706130587416854,-0.13654398063993556,-0.4678232982822125,-0.43917158694624875,-0.039624235649835325,0.35040710081604176,19.500524329471936,-32.67179489135742,-12.940921783447266,-0.31414031982416546,-0.5228258526170458,-1.7427065713304277,-1.6409859135989684,0.010016103942811855,0.026459491394684887,0.02348755135677849,-2.6141292630852293,-8.713532856652138,-8.204929567994842,-0.510132033292421,-1.7099704046791206,-1.6110135751133001,-0.5354118381366679,-1.7771292919744708,-1.6706130587416854,19.50371257839594,2.4971588553491784
-133.99542236328125,13.664746284484863,22.730207443237305,-2.1571695804595947,-7.065550327301025,-6.424681186676025,-1.806443810462952,-4.944264888763428,2.7393271923065186,0.425,-0.6883722559165646,-2.170966112734167,-1.8346615059313365,-0.5411482736026393,-1.7952206762472556,-1.6859019046244466,-0.14105354958662422,-0.48278347058427296,-0.4532207694847858,0.03613075063020525,0.32505864566579773,19.594934431188058,-4.242267608642578,-13.648967742919922,3.4699344635009233,-0.5290291006790896,-1.7597566256440547,-1.6559635795011978,0.009791143726650443,0.027536210646923805,0.023473991304508827,-2.645145503395448,-8.798783128220274,-8.279817897505989,-0.5164537419867646,-1.7257624398988134,-1.6263816857951094,-0.5411482736026393,-1.7952206762472556,-1.6859019046244466,19.59766373619117,2.5214924077746312
-134.0150146484375,13.702126502990724,22.7393798828125,-2.090705633163452,-6.9224138259887695,-6.516948223114014,-0.9663226008415222,-4.921903133392334,1.8749490976333616,0.43333333333333335,-0.5996162281941233,-1.955045402381093,-1.8601529928695273,-0.546145075504257,-1.811512721267098,-1.701403179565026,-0.1456047585491597,-0.49787940992816543,-0.46739912931449434,0.15584752871358598,0.19901385762891016,19.54126828310659,17.176380157470703,-11.072044372558594,7.975673675537109,-0.534967367382588,-1.7769066819177115,-1.6709678782551811,0.009246186682485046,0.02777336046411566,0.02381248088862807,-2.67483683691294,-8.884533409588558,-8.354839391275906,-0.5228916605037486,-1.7419586658548298,-1.6411968302160627,-0.546145075504257,-1.811512721267098,-1.701403179565026,19.542903087312336,2.5445285540241156
-134.02243041992188,13.734380722045898,22.74594497680664,-2.0105271339416504,-7.020542621612549,-6.644576072692871,0.5904209017753601,-4.202989101409912,1.563454508781433,0.44166666666666665,-0.4986113426663634,-1.981518688738725,-1.9198400835960054,-0.5503001700264767,-1.8280253770065875,-1.717401846928326,-0.15019059329938034,-0.5131129547365536,-0.4817108113722304,0.27621295368365717,0.22527094767606504,19.676792216741326,-11.775455474853516,-15.31534194946289,9.621419906616211,-0.5404490692871337,-1.7941200241480633,-1.686208881597634,0.00838144877259827,0.027366492344840947,0.02437464981929496,-2.702245346435668,-8.970600120740317,-8.43104440798817,-0.5292399891656273,-1.7587120542449042,-1.6557244181286848,-0.5503001700264767,-1.8280253770065875,-1.717401846928326,19.68002013557053,2.567873859819456
-134.022705078125,13.75568962097168,22.74729347229004,-1.8743081092834477,-6.7647905349731445,-6.758325099945068,1.5742636919021606,-2.927322626113892,1.1198160648345947,0.45,-0.34360828934825527,-1.6561822436206848,-1.9643135681479666,-0.5531635724377122,-1.8418268957034265,-1.7337711266628926,-0.15480028973636129,-0.5284615122007488,-0.49615890409442115,0.4789517823542435,0.028919344351010078,19.54242769759105,30.690250396728516,-13.649883270263672,16.34628295898432,-0.5452337859415506,-1.8107429924397678,-1.7018182233044754,0.007115867480342915,0.025672482835922536,0.02495546591083025,-2.726168929707753,-9.053714962198839,-8.509091116522377,-0.5354118381366679,-1.7771292919744708,-1.6706130587416854,-0.5531635724377122,-1.8418268957034265,-1.7337711266628926,19.54831735607625,2.5892621673477736
-134.0349578857422,13.766979217529297,22.73734474182129,-1.8254626989364624,-6.77319860458374,-6.923344135284424,0.4824569225311279,-1.0728777647018433,1.094995617866516,0.4583333333333333,-0.2777401473509131,-1.5978184017837078,-2.058419954715882,-0.5554780736656365,-1.8551420490516242,-1.750924626285525,-0.15942927368357493,-0.543921029276179,-0.5107499426468005,0.5937940942106364,-0.043115754524471785,19.648027089986748,-1.0089683532714844,-19.802284240722656,5.861449241638237,-0.5492470330473443,-1.8263455438551983,-1.7178805368132433,0.005711529799940139,0.023772372702043295,0.025684567630112256,-2.7462351652367216,-9.131727719275991,-8.589402684066217,-0.5411482736026393,-1.7952206762472556,-1.6859019046244466,-0.5554780736656365,-1.8551420490516242,-1.750924626285525,19.657045020131097,2.6107173266012254
-134.05035400390625,13.762788772583008,22.71402740478516,-1.8281235694885252,-6.831186771392822,-6.898867130279541,0.4647574424743652,1.266918420791626,0.9192563891410828,0.4666666666666667,-0.26395355550757715,-1.5891783784181976,-1.9625750142424172,-0.5576776866281996,-1.868385202205109,-1.7672794180708784,-0.16407658773880993,-0.5594909059612216,-0.5254772711307245,0.5727902115137674,0.013458094174763196,19.672720031792366,-6.958580017089844,2.9372406005859375,-0.31930446624753195,-0.5525529156524563,-1.8409784490467689,-1.7341560395025297,0.0045091020970280645,0.02229612485599953,0.02613400405256578,-2.762764578262282,-9.204892245233845,-8.670780197512649,-0.546145075504257,-1.811512721267098,-1.701403179565026,-0.5576776866281996,-1.868385202205109,-1.7672794180708784,19.6810615363092,2.631566873085111
-134.07281494140625,13.749889373779297,22.68132781982422,-1.8032325506210327,-6.963846683502197,-6.822455406188965,-0.0969626903533935,2.8472273349761963,0.8516221642494202,0.475,-0.22298384346899658,-1.6543061728883712,-1.8163825875650348,-0.5595358853237746,-1.8821710869791788,-1.7824159396339203,-0.1687393867831747,-0.5751756650193814,-0.5403307372943406,0.544102643149429,0.1647716180130929,19.707954771567504,-15.919189453125,9.16940689086914,2.9869222640990944,-0.5552310776163599,-1.8551101221891853,-1.7503585915163087,0.003645774932262901,0.021322242562649595,0.025863097934548662,-2.7761553880817997,-9.275550610945926,-8.751792957581543,-0.5503001700264767,-1.8280253770065875,-1.717401846928326,-0.5595358853237746,-1.8821710869791788,-1.7824159396339203,19.71615273451023,2.6519153435746237
-134.09088134765625,13.725844383239746,22.652912139892575,-1.757659077644348,-7.093455791473389,-6.787091255187988,0.290900856256485,3.350751638412476,-0.3767469823360443,0.48333333333333334,-0.16210467906658965,-1.7148844551816875,-1.712905291468406,-0.5608867576493295,-1.8964617907723595,-1.796690150396157,-0.1734134430969191,-0.5909795132758178,-0.5553031552143085,0.5505074430039235,0.295715188919454,19.76392295968287,-15.553092956542969,4.2436981201171875,5.468816757202175,-0.5573483951409305,-1.8687974049423395,-1.7662162522098748,0.0030993708596649488,0.02155354169727332,0.024893466312098416,-2.7867419757046523,-9.343987024711698,-8.831081261049373,-0.5531635724377122,-1.8418268957034265,-1.7337711266628926,-0.5608867576493295,-1.8964617907723595,-1.796690150396157,19.773799753058086,2.6719387671307975
-134.10194396972656,13.695855140686035,22.6278133392334,-1.7673757076263428,-7.21319055557251,-6.8557538986206055,1.0512593984603882,3.6359150409698486,-1.2305718660354614,0.49166666666666664,-0.15699054598337758,-1.7642132127947843,-1.7138862201351808,-0.562195012199191,-1.9111635675456493,-1.81097253556395,-0.17809840153191236,-0.6069058763386982,-0.5703945930106747,0.5525266699142855,0.3351735461193584,19.896499361739682,-14.368171691894531,-8.239517211914062,-1.1659955978393821,-0.5591546830932262,-1.882664739310784,-1.7816565339900863,0.002649904428558093,0.02215958704193874,0.023649343969630535,-2.7957734154661313,-9.41332369655392,-8.908282669950431,-0.5554780736656365,-1.8551420490516242,-1.750924626285525,-0.562195012199191,-1.9111635675456493,-1.81097253556395,19.90699158282568,2.6922538770001587
-134.09466552734375,13.658343315124512,22.60807991027832,-1.7921205759048462,-7.140148162841797,-6.883944988250732,3.0800352096557617,3.74774694442749,-2.241617202758789,0.5,-0.16678274378280378,-1.6211127296800276,-1.6742890277277267,-0.563584868397381,-1.924672840292983,-1.8249249441283477,-0.18279494210189054,-0.6229448166744731,-0.585602300878411,0.5450001106626308,0.2534426132347994,19.87085743206569,8.765087127685547,-3.3829307556152344,-2.96938419342041,-0.5607760420395752,-1.8965708975590558,-1.796456597558651,0.0022941793033428182,0.022385626383776818,0.0227467670084073,-2.803880210197876,-9.48285448779528,-8.982282987793255,-0.5576776866281996,-1.868385202205109,-1.7672794180708784,-0.563584868397381,-1.924672840292983,-1.8249249441283477,19.879945507075863,2.7115206983812246
-134.07460021972656,13.614924430847168,22.58976936340332,-1.8075522184371948,-7.030503749847412,-6.81563138961792,4.594744682312012,4.184763908386231,-2.937004566192627,0.5083333333333333,-0.16709301930242515,-1.4436921729966228,-1.5392388526424066,-0.5649773102249012,-1.936703608401288,-1.8377519345670343,-0.18750308635376473,-0.6390840134111505,-0.6009169003331363,0.5085270273790281,0.2048495829020183,19.752207810589695,13.157329559326172,8.1976318359375,-1.851797103881836,-0.5622359667589155,-1.9102345787982915,-1.8105511008578818,0.0021474974902590087,0.02172087248650328,0.021968065327044862,-2.8111798337945775,-9.551172893991458,-9.05275550428941,-0.5595358853237746,-1.8821710869791788,-1.7824159396339203,-0.5649773102249012,-1.936703608401288,-1.8377519345670343,19.75981468743851,2.7289837670584283
-134.04747009277344,13.566313743591309,22.57449531555176,-1.8254860639572144,-7.049675941467285,-6.933542251586914,5.331923961639404,4.300157070159912,-3.5601999759674072,0.5166666666666666,-0.169796083650394,-1.3965747792422798,-1.5907008551375084,-0.5663922775886544,-1.9483417315616405,-1.8510077750265135,-0.19222302200033684,-0.6553201945074976,-0.6163419651250239,0.5346321655406121,0.13317617437252455,19.849958712967624,-2.3006629943847656,-14.149303436279297,-2.1520614624023438,-0.5636072452118914,-1.9234687077147838,-1.8242694679364007,0.002181137252771376,0.0204699162434528,0.021415944924500198,-2.818036226059457,-9.61734353857392,-9.121347339682004,-0.5608867576493295,-1.8964617907723595,-1.796690150396157,-0.5663922775886544,-1.9483417315616405,-1.8510077750265135,19.857603791806564,2.7464641811364077
-134.01966857910156,13.50699234008789,22.5600528717041,-1.9117250442504885,-6.98676061630249,-6.989247798919678,5.410379886627197,5.181567668914795,-4.626007556915283,0.525,-0.24009884700541595,-1.268451433048022,-1.5791983500308167,-0.5683931013136996,-1.958912160170374,-1.8641677612767702,-0.196959631177951,-0.6716444625089173,-0.631876696468997,0.4801933328705216,0.01449576770149841,19.8642680282962,7.549839019775391,-6.684665679931641,-10.348677635192898,-0.5651085139447655,-1.9359587815943868,-1.837764990112523,0.0024116263117108343,0.01886083850007006,0.020947435699235867,-2.8255425697238272,-9.679793907971934,-9.188824950562616,-0.562195012199191,-1.9111635675456493,-1.81097253556395,-0.5683931013136996,-1.958912160170374,-1.8641677612767702,19.870076498700378,2.7632461003443054
-133.99783325195312,13.442453384399414,22.543865203857425,-1.821760177612305,-6.6873273849487305,-6.898566722869873,4.719910144805908,5.702958583831787,-4.866666793823242,0.5333333333333333,-0.1344089587564692,-0.9075721834281163,-1.422317954284467,-0.5695131759700035,-1.9664752616989416,-1.8760204108958074,-0.20170557431103436,-0.6880317563564085,-0.6475101998931287,0.5469425990259632,-0.11658481426989281,19.573024239576547,35.93198776245117,10.881729125976562,10.795783996582031,-0.566572146698928,-1.9470211204250454,-1.8507745651788945,0.0024220454583454665,0.016789141817931293,0.020338243723497684,-2.83286073349464,-9.735105602125227,-9.253872825894472,-0.563584868397381,-1.924672840292983,-1.8249249441283477,-0.5695131759700035,-1.9664752616989416,-1.8760204108958074,19.58101162117521,2.7768368325443675
-133.9814910888672,13.379400253295898,22.526092529296875,-1.7894207239151,-6.798973083496094,-6.9985833168029785,4.122649192810059,5.771694183349609,-4.678926467895508,0.5416666666666666,-0.0875546674183767,-0.9600311216730297,-1.456763395392409,-0.57024279819849,-1.9744755210462168,-1.888160105857411,-0.20645759762935512,-0.7044857190317936,-0.6632448674419406,0.5969591992907971,-0.09293965727832702,19.71167823623861,-13.397483825683594,-12.001991271972656,3.8807344436645774,-0.5679037326591497,-1.956981656575692,-1.8634215975247073,0.0021880048984299445,0.01488067722329369,0.019901728810668762,-2.8395186632957485,-9.78490828287846,-9.317107987623537,-0.5649773102249012,-1.936703608401288,-1.8377519345670343,-0.57024279819849,-1.9744755210462168,-1.888160105857411,19.72093448481881,2.790856323327921
-133.9762725830078,13.30670166015625,22.50763511657715,-1.8989346027374268,-7.03333854675293,-6.938999652862549,2.786867380142212,6.571959972381592,-5.3885178565979,0.55,-0.18207121602930276,-1.1329483400715974,-1.3319708450530996,-0.5717600583320676,-1.9839167572134802,-1.89925986289952,-0.21122226478212236,-0.7210183586752392,-0.6790720329661032,0.4355552190151665,0.06160332911249719,19.861368891955543,-28.123855590820312,7.1500396728515625,-13.1416654586792,-0.569260282280583,-1.9664242863381305,-1.8757231831912045,0.0020159133660138523,0.013731554381672336,0.019059904628419787,-2.846301411402915,-9.832121431690652,-9.378615915956022,-0.5663922775886544,-1.9483417315616405,-1.8510077750265135,-0.5717600583320676,-1.9839167572134802,-1.89925986289952,19.86623964370984,2.805356178932979
-133.96401977539062,13.232749938964844,22.49507713317871,-1.9364006519317627,-6.818850040435791,-6.891241550445557,3.484407663345337,6.234607696533203,-6.044742584228516,0.5583333333333333,-0.20347301201690882,-0.8575221534484925,-1.2206114608153404,-0.5734556667655418,-1.9910627751588843,-1.9094316250729813,-0.21600106200516855,-0.7376105484682299,-0.6949839631750447,0.39484429070186655,-0.08159907010532515,19.68790529632666,25.73862075805664,5.7309722900390625,-4.4959259033203125,-0.5706729601159605,-1.9749684950575794,-1.8874079532004981,0.001978202057928452,0.012935234573302345,0.017999015669456307,-2.8533648005798025,-9.874842475287897,-9.43703976600249,-0.5683931013136996,-1.958912160170374,-1.8641677612767702,-0.5734556667655418,-1.9910627751588843,-1.9094316250729813,19.69203329723138,2.8176428991619495
-133.9644317626953,13.161518096923828,22.482818603515625,-1.8940342664718628,-6.77164363861084,-6.897008419036865,1.93150532245636,5.92799186706543,-5.767274856567383,0.5666666666666667,-0.14526617155342647,-0.7522613458234053,-1.1638214653772954,-0.5746662181951537,-1.9973316197074127,-1.9191301372844587,-0.22078994715679484,-0.7542549786324584,-0.7109767143190819,0.42938406791176115,-0.10726537049877731,19.649480269083778,5.664768218994141,-0.6920242309570312,5.083966255187988,-0.5719275834922513,-1.9826523869649872,-1.8984004284020357,0.0021523875333620286,0.012413436809922023,0.017013789608728368,-2.8596379174612565,-9.913261934824936,-9.492002142010179,-0.5695131759700035,-1.9664752616989416,-1.8760204108958074,-0.5746662181951537,-1.9973316197074127,-1.9191301372844587,19.65446390473669,2.828892954010671
-133.9697723388672,13.087675094604492,22.47072410583496,-1.9386615753173828,-7.029225826263428,-6.958978652954102,1.3605386018753052,6.187464714050293,-6.068089008331299,0.575,-0.17421493832343105,-0.9506671120848544,-1.163346406205025,-0.576118009347849,-2.005253845641453,-1.9288246906695006,-0.22559093056802693,-0.7709654273461372,-0.7270502534079945,0.3736245839627028,0.015827551635011063,19.88253505684441,-30.909862518310547,-7.436428070068359,-5.355277061462402,-0.5732485501678204,-1.9904081037534893,-1.9089612843567743,0.0023203786734627887,0.011882176690837397,0.01600771927740703,-2.8662427508391017,-9.952040518767447,-9.544806421783871,-0.57024279819849,-1.9744755210462168,-1.888160105857411,-0.576118009347849,-2.005253845641453,-1.9288246906695006,19.886051546945637,2.84135876536052
-133.96983337402344,13.014575004577637,22.45872688293457,-2.024860382080078,-6.857969284057617,-6.910802364349365,1.9639843702316284,6.061801433563232,-5.950520038604736,0.5833333333333334,-0.24381155621917783,-0.7201696750978455,-1.0532921846029657,-0.5781497723163421,-2.0112552596006017,-1.937602125541192,-0.23040884533732978,-0.7877258878428088,-0.7431969377875044,0.28369625986079006,-0.11255397532469226,19.74971023832544,20.550785064697266,5.781154632568359,-10.343856811523438,-0.5748299449913908,-1.9977640514643664,-1.9188496882935304,0.002450510888620655,0.01089668955707501,0.015196170574881067,-2.874149724956954,-9.988820257321832,-9.594248441467652,-0.5717600583320676,-1.9839167572134802,-1.89925986289952,-0.5781497723163421,-2.0112552596006017,-1.937602125541192,19.752068409739703,2.851965440779791
-133.9840087890625,12.949625968933104,22.448266983032227,-1.967496395111084,-6.736035346984863,-6.83416223526001,0.2522873878479004,5.307896614074707,-5.429961681365967,0.5916666666666667,-0.16979038467339613,-0.5421341609973922,-0.916507681976384,-0.5795646921886204,-2.01577304427558,-1.9452396895576618,-0.23523855110556827,-0.8045239965451053,-0.7594072685338182,0.30610465072454185,-0.1326875838910589,19.59977434195215,14.632072448730469,9.196815490722656,6.883678436279297,-0.5763908717627014,-2.004135308876786,-1.928045653625159,0.002491544674223469,0.010056876156891667,0.01426127989009115,-2.8819543588135073,-10.020676544383932,-9.640228268125794,-0.5734556667655418,-1.9910627751588843,-1.9094316250729813,-0.5795646921886204,-2.01577304427558,-1.9452396895576618,19.602613609097126,2.860628191200338
-134.00582885742188,12.88807487487793,22.436182022094727,-2.0156052112579346,-6.979532718658447,-6.772499084472656,-0.6477839350700378,5.111691951751709,-4.940678596496582,0.6,-0.20150925835316746,-0.7291453034374822,-0.7965344586495187,-0.5812439360082301,-2.021849255137559,-1.9518774767130744,-0.2400822505723035,-0.8213727403379183,-0.7756729141730938,0.19741883921679493,0.057337964228527515,19.739804799060117,-29.219684600830078,7.399578094482422,-5.77305793762207,-0.5779485256112391,-2.010292604872521,-1.9365348239531772,0.0026285241149342,0.00945904747541514,0.012987302307215216,-2.8897426280561955,-10.051463024362606,-9.682674119765887,-0.5746662181951537,-1.9973316197074127,-1.9191301372844587,-0.5812439360082301,-2.021849255137559,-1.9518774767130744,19.740875242633404,2.869763859230658
-134.02529907226562,12.833553314208984,22.425020217895508,-2.113058090209961,-6.805525302886963,-6.766169548034668,-0.3646058142185211,4.500267505645752,-4.467955112457275,0.6083333333333333,-0.281531541651558,-0.4987110384371416,-0.7331220561623049,-0.5835900321886598,-2.0260051804578687,-1.9579868271810936,-0.24494550084054234,-0.8382561168417338,-0.7919894710662696,0.11740639004944972,-0.09805003124674702,19.635367241204584,20.880889892578125,0.7595443725585938,-11.694345474243164,-0.5797332884099402,-2.0160273170226124,-1.9443061619325044,0.002861936378678568,0.008251630057475173,0.011510614008227813,-2.8986664420497013,-10.080136585113062,-9.721530809662521,-0.576118009347849,-2.005253845641453,-1.9288246906695006,-0.5835900321886598,-2.0260051804578687,-1.9579868271810936,19.635963046563877,2.877322841171419
-134.05357360839844,12.787663459777832,22.409284591674805,-2.0064027309417725,-6.731738567352295,-6.777698040008545,-1.327534556388855,4.113351821899414,-3.2879457473754883,0.6166666666666667,-0.1577197973479243,-0.37123449520176255,-0.6881685755934512,-0.5849043638332259,-2.0290988012512168,-1.9637215653110391,-0.2498197038724859,-0.8551652735188273,-0.8083538174438616,0.2179747458077695,-0.11593794357174034,19.56798094806887,8.854408264160156,-1.3834190368652344,12.798643112182617,-0.5814905593070157,-2.0207963081445652,-1.9512855368608122,0.002783545071055379,0.007304745497849179,0.010291993287505598,-2.9074527965350785,-10.103981540722826,-9.756427684304061,-0.5781497723163421,-2.0112552596006017,-1.937602125541192,-0.5849043638332259,-2.0290988012512168,-1.9637215653110391,19.569538394672364,2.8836708283259225
-134.0820770263672,12.746474266052246,22.39043617248535,-2.032392978668213,-6.947469711303711,-6.762107372283936,-1.2479127645492554,4.036086559295654,-2.685844659805298,0.625,-0.1674288829366155,-0.5327032619414931,-0.6167713725026172,-0.5862996045243644,-2.0335379951007293,-1.9688613267485608,-0.2547055339101889,-0.8721114234780001,-0.8247609951667663,0.15418815879929337,0.03729784727853262,19.714488255623994,-25.887737274169922,1.8708801269530184,-3.1188297271728516,-0.58312052574862,-2.0252528552445908,-1.9575373771022861,0.00272371978331353,0.006809040792400544,0.009353416703698507,-2.9156026287431005,-10.126264276222955,-9.78768688551143,-0.5795646921886204,-2.01577304427558,-1.9452396895576618,-0.5862996045243644,-2.0335379951007293,-1.9688613267485608,19.715126484475363,2.8905776114385553
-134.09988403320312,12.713658332824709,22.3704776763916,-2.084852457046509,-6.8440842628479,-6.769889831542969,0.0366795808076858,3.381718873977661,-1.812347769737244,0.6333333333333333,-0.203133134809941,-0.3747388169513508,-0.5694501019036533,-0.5879923806477806,-2.036660818575324,-1.9736067442644247,-0.25960547041558707,-0.8890835969661278,-0.8412077180356364,0.1159899256802144,-0.05906999609350637,19.65898799717749,12.406253814697266,-0.9338951110838778,-6.295137405395508,-0.5848060634404522,-2.0294304101045393,-1.9632107880436387,0.002576840562160118,0.005883602942884691,0.008602312183815321,-2.9240303172022606,-10.147152050522697,-9.816053940218193,-0.5812439360082301,-2.021849255137559,-1.9518774767130744,-0.5879923806477806,-2.036660818575324,-1.9736067442644247,19.659418913092686,2.896350446790888
-134.12271118164062,12.690240859985352,22.343563079833984,-2.010418653488159,-6.869811058044434,-6.756403923034668,-0.3581894636154175,3.229890823364258,-0.4916139841079712,0.6416666666666666,-0.11232167873654175,-0.34717701352377617,-0.5015410272751026,-0.5889283946372518,-2.039553960354689,-1.9777862528250505,-0.26451320703756415,-0.9060798799690836,-0.8576892701425118,0.1693079542560615,-0.0032203887300493216,19.65156519830271,-3.0872154235839844,1.6183090209960938,8.932056427001953,-0.5863429551662565,-2.0329713511479657,-1.9683925432660339,0.0021826080099083037,0.0054951837100078735,0.007838150157816175,-2.9317147758312823,-10.164856755739828,-9.841962716330169,-0.5835900321886598,-2.0260051804578687,-1.9579868271810936,-0.5889283946372518,-2.039553960354689,-1.9777862528250505,19.652294784513593,2.9014230082964914
-134.12940979003906,12.670619010925291,22.30946350097656,-1.9513556957244875,-7.164116859436035,-6.830127716064453,1.7417807579040527,3.469537734985352,0.480202853679657,0.65,-0.03819671399856861,-0.5861201013305211,-0.5209616036697788,-0.5892467005872398,-2.0444382945324433,-1.9821275995222987,-0.2694235962091245,-0.9231168657568539,-0.874207000138531,0.21465521906095641,0.18080572619851487,19.894851831878718,-35.31669616699219,-8.846855163574219,7.087554931640598,-0.5874742888459725,-2.0366579739628805,-1.9732206977342748,0.0018377080817329194,0.005826566176337772,0.007238160278384556,-2.9373714442298624,-10.183289869814402,-9.866103488671374,-0.5849043638332259,-2.0290988012512168,-1.9637215653110391,-0.5892467005872398,-2.0444382945324433,-1.9821275995222987,19.896831330292375,2.907880574420432
-134.11300659179688,12.653332710266112,22.26793670654297,-1.906877279281616,-7.211399555206299,-6.905966758728027,4.73472785949707,3.944041967391968,1.2269092798233032,0.6583333333333333,0.020291482160399887,-0.5758030595982477,-0.5418642200963815,-0.5890776049025698,-2.0492366533624287,-1.9866431346897686,-0.27433257624997925,-0.9401938378682075,-0.8907623595942791,0.27895518663850133,0.18059038260504243,19.969843133301055,-5.673923492431641,-9.100685119628906,5.3374099731445845,-0.5883089370598412,-2.0406855443851226,-1.9778050116100208,0.0012238876149687705,0.006240411834371614,0.006971593887620554,-2.941544685299206,-10.203427721925614,-9.889025058050104,-0.5862996045243644,-2.0335379951007293,-1.9688613267485608,-0.5892467005872398,-2.0492366533624287,-1.9866431346897686,19.972607833007018,2.9142982398326676
-134.08750915527344,12.640379905700684,22.2249755859375,-1.8852604627609253,-7.020012378692627,-6.836628437042236,5.833219051361084,3.6578023433685294,1.7758731842041016,0.6666666666666666,0.0551902700597775,-0.32869691569649984,-0.4181699442998239,-0.588617685985405,-2.051975794326566,-1.9901278842256005,-0.27923772363319094,-0.9572936361542622,-0.9073467586294924,0.29208433075900997,0.0908461316263603,19.784001349494368,22.966461181640625,8.320598602294922,2.5940179824828835,-0.5887725533520494,-2.04437310423029,-1.9820583231054285,0.0004936628164045996,0.006406300694614501,0.006629911058029364,-2.943862766760247,-10.22186552115145,-9.910291615527143,-0.5879923806477806,-2.036660818575324,-1.9736067442644247,-0.5892467005872398,-2.051975794326566,-1.9901278842256005,19.78636590363934,2.918507227390266
-134.06951904296875,12.63225269317627,22.180198669433597,-1.8435693979263303,-7.043620586395264,-6.769346237182617,5.010477542877197,3.454975843429565,2.280588865280152,0.675,0.10946481070816416,-0.2986522336162416,-0.29831618681239025,-0.5877054792295036,-2.0544645629400344,-1.992613852449037,-0.2841352692934368,-0.9744141741787625,-0.9239518740665678,0.2991855236097455,0.16009895724606807,19.745806153265626,-2.8329849243164062,8.073863983154297,5.002927780151394,-0.5887151730683939,-2.047933853103232,-1.985859744742351,0.0006099850725552829,0.005981769816391953,0.005990802639448862,-2.9435758653419697,-10.239669265516161,-9.929298723711755,-0.5877054792295036,-2.039553960354689,-1.9777862528250505,-0.5892467005872398,-2.0544645629400344,-1.992613852449037,19.74872158637089,2.921768699891311
-134.04493713378906,12.628986358642578,22.13433837890625,-1.922153353691101,-7.248484134674072,-6.790381908416748,5.798295021057129,3.0950961112976074,2.843257188796997,0.6833333333333333,0.043616722370587224,-0.4485700696014314,-0.26778859460061355,-0.587342006543082,-2.05820264685338,-1.994845424070709,-0.28902978601462914,-0.9915658629025407,-0.9405755859338236,0.21415793864988605,0.2581309464429435,19.920983484294833,-24.58362579345703,-2.524280548095703,-9.430074691772488,-0.58839789544956,-2.0516635904029705,-1.9892715789914828,0.0008404053466494455,0.005215292454069895,0.005022871728278263,-2.9419894772478,-10.258317952014853,-9.946357894957414,-0.587342006543082,-2.0444382945324433,-1.9821275995222987,-0.5892467005872398,-2.05820264685338,-1.994845424070709,19.923806819725637,2.925846379101295
-134.00717163085938,12.62758731842041,22.09100341796875,-1.992055296897888,-7.013144493103027,-6.735525131225586,7.346597671508789,2.7741241455078125,2.743515014648437,0.6916666666666667,-0.012457149077391039,-0.15918877032200296,-0.1622648564339757,-0.5874458161187269,-2.0595292199393964,-1.9961976312076588,-0.29392516781561856,-1.0087286064020355,-0.9572105661938874,0.15804644150624042,0.09417698859024384,19.734007799148436,28.24075698852539,6.582813262939453,-8.388233184814426,-0.5880377185558574,-2.054681775484361,-1.9920855853285548,0.0007685168351067575,0.004269459075396242,0.0038163320058213174,-2.940188592779287,-10.273408877421806,-9.960427926642774,-0.587342006543082,-2.0492366533624287,-1.9866431346897686,-0.5890776049025698,-2.0595292199393964,-1.9961976312076588,19.734865385902786,2.927722353212245
-133.97039794921875,12.6256103515625,22.047897338867188,-2.053064346313477,-6.791381359100342,-6.648298263549805,7.18865966796875,2.7584736347198486,2.726353168487549,0.7,-0.0587037579898082,0.11211907180090286,-0.026174408995099263,-0.5879350141019754,-2.0585948943410557,-1.996415751282618,-0.29882462626646833,-1.0258835638548778,-0.9738473641212426,0.09459288144015153,-0.036787533527155546,19.532525527871677,26.611576080322266,10.46722412109375,-7.321085929870685,-0.5878092003957386,-2.0565534236800866,-1.9940401086471247,0.0005075811133745145,0.0032039402540855015,0.0026592678096879424,-2.939046001978693,-10.282767118400432,-9.970200543235624,-0.587342006543082,-2.051975794326566,-1.9901278842256005,-0.588617685985405,-2.0595292199393964,-1.996415751282618,19.53278921794839,2.9273121411601277
-133.9430389404297,12.63127899169922,21.998252868652344,-2.104235887527466,-6.687713146209717,-6.563440322875977,6.259722709655762,2.719835042953491,3.863357305526733,0.7083333333333334,-0.09434476709642725,0.2619825152509847,0.10550458562623355,-0.5887212204944455,-2.056411706713964,-1.9955365464023993,-0.3037306364372554,-1.0430203280774941,-0.9904768353412626,0.027834205889094216,-0.08041148962743165,19.41337565221821,12.440185546875,10.182952880859375,-6.140584945678658,-0.5878299072975467,-2.0574406061575656,-1.9951218410824842,0.0005492135694456205,0.002011893515170724,0.0015305164044424103,-2.9391495364877334,-10.287203030787829,-9.975609205412422,-0.587342006543082,-2.0544645629400344,-1.992613852449037,-0.5887212204944455,-2.0595292199393964,-1.996415751282618,19.41356214003037,2.925335517679694
-133.9203338623047,12.64107894897461,21.942218780517575,-2.255476236343384,-6.639938831329346,-6.445633888244629,5.841801166534424,2.8724701404571533,4.790566921234131,0.7166666666666667,-0.22853216094790518,0.35409746712500567,0.2678475989743152,-0.5906256551690114,-2.0534608944879222,-1.9933044830776134,-0.30865251689699713,-1.0601325021982269,-1.0070877060335761,-0.1491230360352151,-0.09994147000014991,19.33312611386043,5.732917785644531,14.136772155761719,-18.148841857910156,-0.5884139424854483,-2.057239872467144,-1.9952599672081999,0.0013510903460353034,0.0023963860151316294,0.0012537255338003438,-2.9420697124272417,-10.286199362335719,-9.976299836041,-0.587342006543082,-2.0534608944879222,-1.9933044830776134,-0.5906256551690114,-2.0595292199393964,-1.996415751282618,19.333959535277152,2.92212304189818
-133.90872192382812,12.657078742980955,21.889196395874023,-2.324784755706787,-6.6814680099487305,-6.392222881317139,4.460616111755371,2.148265600204468,5.023616790771484,0.725,-0.27912558045770464,0.356293765782298,0.3637941349147811,-0.5929517016728256,-2.0504917797730697,-1.990272865286657,-0.313593781077604,-1.0772199336963357,-1.0236733132442983,-0.23533027089893865,-0.0639156154147009,19.341405287284456,-4.983501434326172,6.409320831298828,-8.317022323608398,-0.589535881511397,-2.0556976990510814,-1.9943454554513895,0.0022610979844400717,0.00373125280559504,0.0025886768653453915,-2.947679407556985,-10.278488495255408,-9.971727277256948,-0.5874458161187269,-2.0504917797730697,-1.990272865286657,-0.5929517016728256,-2.0595292199393964,-1.996415751282618,19.34294248632535,2.918440394753676
-133.91319274902344,12.679295539855955,21.838132858276367,-2.294882535934448,-6.76984977722168,-6.297224521636963,2.4503984451293945,1.4206037521362305,5.459072113037109,0.7333333333333333,-0.23038878598772694,0.31217503755484355,0.4995351851141212,-0.5948716082227233,-2.047890321126779,-1.9861100720773728,-0.31855104447946003,-1.0942856863723922,-1.0402242305116098,-0.25385725483549987,0.06943412667611694,19.332768711462617,-10.605812072753906,11.399803161621094,3.5882663726807174,-0.5910210399321962,-2.053369919288558,-1.992327943625332,0.0028949691232776622,0.004326395573056449,0.004208450014441048,-2.955105199660981,-10.26684959644279,-9.96163971812666,-0.5879350141019754,-2.047890321126779,-1.9861100720773728,-0.5948716082227233,-2.0585948943410557,-1.996415751282618,19.334560006751843,2.9141654407465305
-133.92230224609375,12.712491989135742,21.795564651489254,-2.2403409481048584,-6.724799633026123,-6.340329170227051,1.7062795162200928,-0.1619588136672973,5.666112899780273,0.7416666666666667,-0.15793947466187852,0.4012897188486324,0.49620870793448546,-0.5961877705115723,-2.044546240136374,-1.9819749995112521,-0.3235192759003898,-1.111323571706862,-1.0567406888408704,-0.1772218996538331,0.03473586404629534,19.31837617435111,5.406017303466797,-5.172557830810547,6.544990539550728,-0.5926715912141156,-2.050560188447622,-1.989439793271059,0.0030443938921714624,0.0046355907689081275,0.005468327535408679,-2.963357956070578,-10.252800942238109,-9.947198966355295,-0.5887212204944455,-2.044546240136374,-1.9819749995112521,-0.5961877705115723,-2.056411706713964,-1.9955365464023993,19.319220279185817,2.9092669324850493
-133.93099975585938,12.750722885131836,21.7586612701416,-2.2815194129943848,-7.110878944396973,-6.505897045135498,1.5790023803710938,-1.108635187149048,5.692520618438721,0.75,-0.181530059159845,0.06158844421578902,0.3716598133751132,-0.597700521004571,-2.044033003101242,-1.9788778343997928,-0.3285001135754279,-1.128357180066039,-1.0732313374608686,-0.1836833735999529,0.1937941679938314,19.710774252267132,-46.32951736450195,-19.868144989013672,-4.941415786743164,-0.5944674513161408,-2.0480844477250773,-1.9861080508705378,0.0027673306256678484,0.003989744008249444,0.00588414104765233,-2.972337256580704,-10.240422238625387,-9.930540254352689,-0.5906256551690114,-2.044033003101242,-1.9788778343997928,-0.597700521004571,-2.0534608944879222,-1.9933044830776134,19.71258271726773,2.9071075511674884
-133.91822814941406,12.79169750213623,21.73187065124512,-2.253086805343628,-6.966339111328125,-6.472973346710205,3.9173004627227774,-2.145115375518799,5.052267551422119,0.7583333333333333,-0.1356069095060488,0.2539597983386015,0.44619040226003026,-0.5988305785837881,-2.0419166714484205,-1.975159581047626,-0.3334903683969595,-1.1453731523281092,-1.0896910006362654,-0.14822280394122306,0.1232686069946211,19.58079830743505,17.34477996826172,3.9508438110351562,3.4119129180908203,-0.596108435999096,-2.045775603117177,-1.98247907046454,0.002315480697185498,0.003396825587716468,0.005931385261708423,-2.98054217999548,-10.228878015585884,-9.9123953523227,-0.5929517016728256,-2.0419166714484205,-1.975159581047626,-0.5988305785837881,-2.0504917797730697,-1.990272865286657,19.58174730471032,2.9033217399368993
-133.90982055664062,12.833060264587402,21.70986557006836,-2.151752471923828,-6.7640061378479,-6.538111209869385,3.2384204864501958,-2.624767780303955,4.754040241241455,0.7666666666666666,-0.018081274121529933,0.5006003147798417,0.4223940762465883,-0.5989812558681341,-2.0377450021585886,-1.9716396304122377,-0.3384818788625273,-1.1623543606794309,-1.1061213308897007,-0.0007986352760497634,-0.021044799609161013,19.460299083680525,24.279956817626953,-7.8165435791015625,12.160120010375977,-0.5973143468381578,-2.043226247594281,-1.9787524234896563,0.0017651360479156838,0.003738510996684553,0.0056576509929556,-2.9865717341907887,-10.216131237971403,-9.893762117448281,-0.5948716082227233,-2.0377450021585886,-1.9716396304122377,-0.5989812558681341,-2.047890321126779,-1.9861100720773728,19.4603104792217,2.898024511786568
-133.89630126953125,12.87531566619873,21.690073013305664,-2.175697326660156,-6.948434829711914,-6.600398063659668,3.822937488555908,-2.839824676513672,4.596487522125244,0.775,-0.026681653720455945,0.3597590512963933,0.40198781911737935,-0.5992036029824712,-2.034747010064452,-1.9682897319195929,-0.34347524222071457,-1.1793105857633013,-1.122523745322364,-0.009276692627068706,0.06251213008777051,19.637291906487658,-22.13144302368164,-7.474422454833984,-2.8733825683593217,-0.5981807457901074,-2.040597585381815,-1.9751883554581002,0.0012561749665551153,0.00422789604661093,0.00547394000045867,-2.9909037289505367,-10.202987926909076,-9.875941777290501,-0.5961877705115723,-2.034747010064452,-1.9682897319195929,-0.5992036029824712,-2.044546240136374,-1.9819749995112521,19.637393595995366,2.893683607717593
-133.88511657714844,12.916154861450195,21.66728782653809,-2.163618803024292,-6.837153911590576,-6.600616455078125,3.5974040031433105,-2.513063669204712,4.770100593566895,0.7833333333333333,0.0006542526539203841,0.5146803955127295,0.44363580335229535,-0.5991981508770219,-2.0304580067685123,-1.9645927668916572,-0.34846856014468974,-1.196231069153039,-1.1388953517131277,0.020802843294208524,-0.01073273953905274,19.556563988023655,13.353710174560547,-0.02620697021484375,1.4494228363036576,-0.5987828218631973,-2.037779938708243,-1.9717119089341815,0.0006250173692564701,0.005454904584934571,0.005604365127096669,-2.9939141093159867,-10.188899693541215,-9.858559544670907,-0.597700521004571,-2.0304580067685123,-1.9645927668916572,-0.5992036029824712,-2.044033003101242,-1.9788778343997928,19.55657799738111,2.8881521568275828
-133.88583374023438,12.962430953979492,21.640121459960938,-2.219255924224853,-6.71606969833374,-6.4300537109375,2.3167691230773926,-2.549845933914185,5.542754173278809,0.7916666666666666,-0.03954486960417691,0.6768791090182225,0.6540853937219113,-0.5995276914570566,-2.0248173475266937,-1.959142055277308,-0.3534646242401652,-1.2131045470490947,-1.1552215355071054,-0.07955383827187834,-0.008481524748664883,19.36875928278242,14.530105590820312,20.467529296875,-6.6764545440673295,-0.5991482559536945,-2.0339368075933333,-1.9677647531096845,0.0002637859161680748,0.006597416314891363,0.006212611600072916,-2.995741279768472,-10.169684037966666,-9.838823765548423,-0.5988305785837881,-2.0248173475266937,-1.959142055277308,-0.5995276914570566,-2.0419166714484205,-1.975159581047626,19.368924515930566,2.880547922952343
-133.89564514160156,13.015660285949709,21.61111259460449,-2.308682680130005,-6.9515700340271,-6.315077304840088,1.252471923828125,-3.0217621326446533,6.346887111663818,0.8,-0.11249860590379956,0.4829131558296611,0.8060130067804607,-0.6004651798395884,-2.020793071228113,-1.9524252802208042,-0.35846850073882847,-1.229944489309329,-1.171491746175612,-0.22470541489414247,0.2005170941406621,19.47663557775386,-28.260040283203125,13.797168731689453,-10.731210708618217,-0.5994751762048545,-2.029712087549272,-1.96321789294432,0.0005867958322681466,0.006963151035399759,0.007609737725990262,-2.997375881024272,-10.148560437746358,-9.8160894647216,-0.5989812558681341,-2.020793071228113,-1.9524252802208042,-0.6004651798395884,-2.0377450021585886,-1.9716396304122377,19.47896385994781,2.8733477937361886
-133.89393615722656,13.08192539215088,21.58767318725586,-2.44740629196167,-7.187719821929932,-6.2470383644104,2.5112195014953613,-4.530043601989746,6.968915939331055,0.8083333333333333,-0.23302239390072055,0.29172676126041086,0.908956277318195,-0.6024070331220943,-2.0183620148842762,-1.944850644576486,-0.36348855934817925,-1.246764172766698,-1.187698834880416,-0.39215951280902944,0.3628261595965685,19.628002353704098,-28.337974548339844,8.1646728515625,-16.646833419799805,-0.6001603316556465,-2.0258354900944093,-1.95786009577717,0.001358487681252582,0.00676569070036446,0.009414518458728151,-3.000801658278233,-10.129177450472048,-9.789300478885849,-0.5991981508770219,-2.0183620148842762,-1.944850644576486,-0.6024070331220943,-2.034747010064452,-1.9682897319195929,19.635272045545683,2.8669013736772064
-133.88400268554688,13.160511016845703,21.57757568359375,-2.5113136768341064,-7.271580696105957,-6.15946626663208,3.1129109859466557,-6.724761962890625,7.006429672241211,0.8166666666666667,-0.277233474053034,0.2549489677257304,1.0296334249641035,-0.6047173120725363,-2.0162374401532284,-1.9362703660351184,-0.36852787028211703,-1.2635661514346417,-1.203834421264042,-0.48146324102497845,0.4561663537274774,19.642685914768258,-10.063304901123047,10.508651733398438,-7.668886184692383,-0.6012630734736596,-2.022133576112165,-1.9514562226002745,0.0022995922627896217,0.005641028750352315,0.01125637367429632,-3.006315367368298,-10.110667880560824,-9.757281113001373,-0.5991981508770219,-2.0162374401532284,-1.9362703660351184,-0.6047173120725363,-2.0304580067685123,-1.9645927668916572,19.653880139579734,2.8600768124268354
-133.8638458251953,13.251325607299805,21.581449508666992,-2.5104212760925293,-7.249139308929443,-6.25780200958252,3.981233596801758,-8.868776321411133,6.880662441253662,0.825,-0.25633925405199465,0.3243925194541175,0.9640213964741786,-0.6068534725229696,-2.0135341691577775,-1.9282368543978337,-0.37358498255314176,-1.2803456028442899,-1.2199030617173572,-0.4220440011279381,0.3830842778674605,19.693696018798928,2.6929664611816406,-11.800289154052841,0.10708808898925781,-0.6027941378028491,-2.0187488085900176,-1.9441850401015102,0.0030174643577085673,0.004320162605999379,0.012339404182646434,-3.0139706890142453,-10.093744042950089,-9.720925200507551,-0.5995276914570566,-2.0135341691577775,-1.9282368543978337,-0.6068534725229696,-2.0248173475266937,-1.959142055277308,19.70194248249888,2.8531891549872994
-133.83973693847656,13.350695610046388,21.59063720703125,-2.3918168544769287,-7.194355010986328,-6.4953932762146,4.285685062408447,-10.07157039642334,7.247383117675781,0.8333333333333334,-0.11897030441371648,0.42492792342436303,0.7615180817385836,-0.6078448917264172,-2.0099931031292413,-1.9218908703833455,-0.3786503566508619,-1.297095545370367,-1.2359188189705517,-0.1934649666685239,0.24406067488544586,19.788610694671092,6.574115753173828,-28.510951995849503,14.23253059387207,-0.604457577856721,-2.0157839597105274,-1.9367348031227176,0.003058825101347512,0.004199368662904176,0.012296657346441723,-3.0222878892836054,-10.078919798552636,-9.683674015613589,-0.6004651798395884,-2.0099931031292413,-1.9218908703833455,-0.6078448917264172,-2.020793071228113,-1.9524252802208042,19.791061303821095,2.846614165054314
-133.8164825439453,13.453900337219238,21.602434158325195,-2.247260332107544,-6.984560966491699,-6.60701322555542,4.127414703369141,-10.561083793640137,7.3183088302612305,0.8416666666666667,0.04191142678380855,0.6776508727907569,0.6874415845125252,-0.6074956298365521,-2.0043460125226518,-1.9161621905124078,-0.38371282023283315,-1.3137984288080558,-1.2518868372248217,0.022484023969658855,0.08247323485782594,19.683175137298335,25.17528533935547,-13.394393920898438,17.346782684326172,-0.6058636678561139,-2.012494547969435,-1.9294821851810382,0.00228203398723167,0.005526596564178548,0.01138936028264487,-3.0293183392805694,-10.062472739847175,-9.647410925905191,-0.6024070331220943,-2.0043460125226518,-1.9161621905124078,-0.6078448917264172,-2.0183620148842762,-1.944850644576486,19.68336076109365,2.838684804365443
-133.80577087402344,13.5567045211792,21.61546897888184,-2.226651430130005,-6.89291524887085,-6.788899421691895,2.566713094711304,-10.6745023727417,7.240312099456787,0.85,0.07725309485021636,0.809115063714092,0.5450627586359511,-0.6068518540461336,-1.997603386991701,-1.9116200008571083,-0.38876991901655095,-1.3304451236996533,-1.267817003898631,0.14297359847683885,-0.08113678933785043,19.73634816782181,10.997486114501953,-21.82634353637706,2.4730682373046875,-0.6067526320409218,-2.0083428223909197,-1.9228360564371627,0.0012152796106124652,0.007471754466059284,0.009758112763530972,-3.0337631602046087,-10.0417141119546,-9.614180282185814,-0.6047173120725363,-1.997603386991701,-1.9116200008571083,-0.6078448917264172,-2.0162374401532284,-1.9362703660351184,19.737032797001902,2.830720666571832
-133.81227111816406,13.656183242797852,21.62248992919922,-2.250579595565796,-6.815323829650879,-6.861854553222656,0.685936450958252,-9.847110748291016,7.3856987953186035,0.8583333333333333,0.0678996917119079,0.9245550759080094,0.5132351840677618,-0.6062860232818678,-1.9898987613591341,-1.9073430409898768,-0.3938223025438998,-1.347027613377646,-1.2837115292402133,0.17497775285944397,-0.1816694034628666,19.73648852023798,9.310970306396484,-8.7546157836913,-2.871379852294922,-0.6070663742827881,-2.003075086632101,-1.9170505914281144,0.0006104595638825118,0.00951868763028649,0.008262534194249507,-3.0353318714139403,-10.015375433160505,-9.585252957140572,-0.6062860232818678,-1.9898987613591341,-1.9073430409898768,-0.6078448917264172,-2.0135341691577775,-1.9282368543978337,19.73810021495574,2.822275198930478
-133.84068298339844,13.74543571472168,21.625978469848636,-2.22684907913208,-6.741273880004883,-6.8613128662109375,-1.8635122776031492,-8.746826171875,6.835606575012207,0.8666666666666667,0.10602159863916905,1.0346478729735722,0.5549709219725028,-0.6054025099598747,-1.981276695751021,-1.9027182833067726,-0.3988673234602321,-1.3635382525089046,-1.2995675149344363,0.21592881890505364,-0.21502511572532307,19.678555291392595,8.885993957519531,0.06500244140625,2.8476619720458984,-0.6067761817701691,-1.99662359195075,-1.9119468772099022,0.0009737430834635442,0.011402742832535473,0.007468617141010174,-3.0338809088508456,-9.98311795975375,-9.559734386049511,-0.6054025099598747,-1.981276695751021,-1.9027182833067726,-0.6078448917264172,-2.0099931031292413,-1.9218908703833455,19.680914597945442,2.8128822246623963
-133.8955078125,13.82636833190918,21.631275177001957,-2.233642339706421,-6.654923915863037,-6.870523452758789,-5.061731815338135,-8.167304039001465,5.914647579193115,0.875,0.11329298890939077,1.1551754090028181,0.5864815347531094,-0.604458401718963,-1.971650234009331,-1.89783093718383,-0.40390447680789016,-1.379968671125649,-1.3153827727443015,0.23155400938551143,-0.27046558535109994,19.626032500478072,10.361995697021484,-1.1052703857421875,-0.8151912689208984,-0.6060988837686783,-1.9889550181267677,-1.9071348905699992,0.0011967667746307176,0.012951639198078431,0.007206275970795377,-3.030494418843391,-9.944775090633838,-9.535674452849996,-0.604458401718963,-1.971650234009331,-1.89783093718383,-0.6074956298365521,-2.0043460125226518,-1.9161621905124078,19.62926184556983,2.802594667591043
-133.96636962890625,13.896174430847168,21.640193939208984,-2.296912670135498,-6.881704330444336,-6.993968963623047,-7.112970352172852,-7.597745418548584,4.703504085540772,0.8833333333333333,0.06449693408388057,0.9632600794265995,0.5043333392387837,-0.6039209272682641,-1.963623066680776,-1.89362815935684,-0.40893715120179236,-1.396332196681322,-1.3311630074056084,0.21162892609045028,-0.19184155532674607,19.883116408803158,-27.21364974975586,-14.813461303710938,-7.592439651489258,-0.6053839432550207,-1.9808104289583928,-1.9026280843388856,0.0012212594012606692,0.013639402696128516,0.0071955678243500795,-3.026919716275103,-9.904052144791963,-9.513140421694429,-0.6039209272682641,-1.963623066680776,-1.89362815935684,-0.6068518540461336,-1.997603386991701,-1.9116200008571083,19.88516804331122,2.7939870508473277
-134.0447998046875,13.953041076660156,21.65431404113769,-2.396417617797852,-6.968912124633789,-7.057629108428955,-8.156137466430664,-6.918021202087402,3.104688882827759,0.8916666666666666,-0.019345793638623654,0.9130624178646451,0.48300009434462243,-0.6040821422152526,-1.9560142131985705,-1.8896031585706348,-0.4139711690535861,-1.4126323151246434,-1.3469097003936972,0.14481621458984106,-0.18788906544191908,20.011098381791182,-10.464935302734375,-7.639217376708984,-11.940593719482475,-0.6048300008888444,-1.9724925941997664,-1.8982247158815908,0.0009964388129635748,0.013518970234162833,0.007052493264858573,-3.024150004444222,-9.862462970998832,-9.491123579407954,-0.6039209272682641,-1.9560142131985705,-1.8896031585706348,-0.6062860232818678,-1.9898987613591341,-1.9073430409898768,20.01250440306376,2.78594812113548
-134.13841247558594,14.000585556030272,21.677898406982425,-2.3595986366271973,-7.004328727722168,-7.144979476928711,-10.271361351013184,-6.979649066925049,1.5791306495666504,0.9,0.03346855949720107,0.9151676136957239,0.4386919707751531,-0.6038032375527759,-1.9483878164177728,-1.8859473921475085,-0.41900286269985926,-1.4288688802614582,-1.3626259286615932,0.21349039379662127,-0.18404558364398643,20.08616696305569,-4.249992370605469,-10.482044219970703,4.418277740478569,-0.6043334437430261,-1.9641904052114942,-1.8939455861131171,0.0006467143836180563,0.012888795245514265,0.006614089363195233,-3.0216672187151303,-9.820952026057471,-9.469727930565586,-0.6038032375527759,-1.9483878164177728,-1.8859473921475085,-0.6054025099598747,-1.981276695751021,-1.9027182833067726,20.088144617979335,2.7780552548126933
-134.2525634765625,14.039102554321287,21.70819664001465,-2.2517099380493164,-7.354775905609131,-7.412749767303467,-12.911727905273438,-6.744484901428223,0.1941174864768982,0.9083333333333333,0.15593294818306802,0.6049694249382611,0.21639409141147325,-0.602503796317917,-1.9433464045432873,-1.8841441080524128,-0.42402372766917523,-1.4450634336326522,-1.3783271295620299,0.38916038443986334,-0.035804200560689885,20.485160777894688,-42.05366134643555,-32.1324348449707,12.946643829345703,-0.6037537010146344,-1.9566043469699477,-1.8902307510622454,0.0007411404968865896,0.01139379011520643,0.005592259634178498,-3.0187685050731723,-9.783021734849738,-9.451153755311227,-0.602503796317917,-1.9433464045432873,-1.8841441080524128,-0.604458401718963,-1.971650234009331,-1.89783093718383,20.488888204141045,2.7730137202216376
-134.37535095214844,14.062609672546388,21.743650436401367,-2.1839540004730225,-7.586737155914307,-7.697067737579346,-14.122129440307615,-5.960125923156738,-1.4744068384170532,0.9166666666666666,0.23659551624871344,0.4176184622683703,-0.01838126815593899,-0.6005321670158443,-1.939866250691051,-1.8842972852870457,-0.42902816239430724,-1.4612289857217442,-1.3940296069394218,0.5435761606122005,0.005963006838251242,20.822609904385118,-27.835350036621094,-34.11815643310547,8.130712509155273,-0.6029684540740108,-1.9502475503062915,-1.8875240206828885,0.0014996475734640573,0.009630870208369608,0.004059085843951969,-3.0148422703700537,-9.751237751531457,-9.437620103414442,-0.6005321670158443,-1.939866250691051,-1.8841441080524128,-0.6040821422152526,-1.963623066680776,-1.89362815935684,20.829704602562988,2.7702520126391086
-134.5163116455078,14.06391143798828,21.787443161010746,-1.9696162939071653,-7.656471729278564,-8.025107383728027,-16.52459144592285,-4.743500709533691,-4.119077205657959,0.9249999999999999,0.46128652866691966,0.394449427564755,-0.29233523348973733,-0.5966881126102866,-1.9365791721280112,-1.8867334122327934,-0.4340005633327263,-1.4773671454894777,-1.4097523853746952,0.858887471196059,-0.03820403010180225,21.042281556778175,-8.368148803710831,-39.3647575378418,25.72052478790286,-0.6015218911424153,-1.9448387713957385,-1.886145071258079,0.0030441966722871733,0.007626603456093398,0.0022227098744487406,-3.0076094557120765,-9.724193856978692,-9.430725356290395,-0.5966881126102866,-1.9365791721280112,-1.8841441080524128,-0.6040821422152526,-1.9560142131985705,-1.8896031585706348,21.059837614540633,2.7687792549219306
-134.6752471923828,14.038463592529297,21.835962295532227,-1.6605082750320437,-7.680274486541748,-8.359560012817383,-18.839506149291992,-2.9154646396636963,-6.748379707336426,0.9333333333333333,0.7761797202603302,0.4173937421671159,-0.5677758514719065,-0.5902199482747839,-1.9331008909432852,-1.891464877661726,-0.4389190629016828,-1.4934763195806717,-1.4255145926885429,1.26041823540889,-0.08165010755855778,21.213106009318416,-2.856330871582138,-40.134315490722656,37.0929622650146,-0.5987494523543215,-1.9402561069446815,-1.8865174150762976,0.005473012798652657,0.005927554128361972,0.0029753373531453864,-2.993747261771608,-9.701280534723407,-9.432587075381488,-0.5902199482747839,-1.9331008909432852,-1.8841441080524128,-0.6038032375527759,-1.9483878164177728,-1.891464877661726,21.25067498765149,2.7681903882022096
-134.84869384765625,13.98405647277832,21.881406784057617,-1.6211135387420654,-7.718757152557373,-8.487482070922852,-20.465974807739254,-0.1550814509391784,-9.01924991607666,0.9416666666666667,0.8183057717869138,0.425573348663975,-0.6334908599817464,-0.5834007335098929,-1.9295544463710854,-1.8967439681615739,-0.4437807356809319,-1.5095559399670975,-1.4413207924232228,1.3235054843341303,-0.08683381964706663,21.3202287601328,-4.617919921875,-15.35064697265625,4.72736835479739,-0.5946689515457451,-1.936489432935344,-1.8886767302791103,0.00785183843864122,0.005431511446946032,0.005393393658014633,-2.973344757728725,-9.68244716467672,-9.443383651395552,-0.5834007335098929,-1.9295544463710854,-1.8841441080524128,-0.602503796317917,-1.9433464045432873,-1.8967439681615739,21.361445673542107,2.7678826669726484
-135.0204315185547,13.90311336517334,21.915468215942383,-1.6217834949493408,-7.972103595733643,-8.48305892944336,-19.94887351989746,3.015488386154175,-10.286924362182615,0.95,0.8199523574564835,0.22074042908505653,-0.5665529983255277,-0.5765677971977555,-1.9277149427953766,-1.90146524314762,-0.44858546732424653,-1.525620231157059,-1.4571663361161196,1.266587679097934,0.12459178884598567,21.49448282053243,-30.401573181152344,0.5307769775390625,-0.08039474487304688,-0.5894817517217127,-1.9333631405857616,-1.8921409572981518,0.009725446693077877,0.004977709430605691,0.007059600440926009,-2.9474087586085633,-9.666815702928808,-9.460704786490759,-0.5765677971977555,-1.9277149427953766,-1.8842972852870457,-0.6005321670158443,-1.939866250691051,-1.90146524314762,21.53212853353923,2.7684084590862836
-135.16676330566406,13.802985191345217,21.94167137145996,-1.6262415647506714,-8.096652030944824,-8.475604057312012,-16.639896392822266,5.353146553039551,-11.299531936645508,0.9583333333333334,0.8177694818890084,0.1472660243300865,-0.4974219881376687,-0.5697530515153472,-1.9264877259259592,-1.9056104263821005,-0.4533334094202078,-1.5416742955397753,-1.473046423002637,1.2159570029376783,0.23772588995490396,21.57865475921957,-14.945812225341797,0.8945846557617188,-0.534968376159668,-0.5833259286216131,-1.9306874356327435,-1.8964035855171626,0.01067680192029521,0.004132017226090144,0.007556540935842212,-2.916629643108066,-9.653437178163717,-9.482017927585813,-0.5697530515153472,-1.9264877259259592,-1.8867334122327934,-0.5966881126102866,-1.9365791721280112,-1.9056104263821005,21.614194554721152,2.7689934263176923
-135.28440856933594,13.691706657409668,21.968975067138672,-1.775431513786316,-7.318170070648193,-8.340399742126465,-13.250835418701172,6.20058012008667,-12.273780822753906,0.9666666666666667,0.6720666531609003,0.9706549119120345,-0.3024779041589527,-0.5641524960723396,-1.918398934993359,-1.908131075583425,-0.4580346802208106,-1.5576609533313865,-1.4889475152991656,1.0813597816167089,-0.2839312173013113,20.991237954183937,93.4178352355957,16.224517822265625,-17.902793884277344,-0.5768188053140237,-1.927051388205813,-1.900683118187289,0.010408358216529592,0.005442535025308456,0.0067241173434035365,-2.8840940265701187,-9.635256941029064,-9.503415590936445,-0.5641524960723396,-1.918398934993359,-1.891464877661726,-0.5902199482747839,-1.9331008909432852,-1.908131075583425,21.020990147056075,2.76396214051775
-135.4403839111328,13.580199241638184,21.988353729248047,-1.880666732788086,-6.785586833953857,-8.099583625793457,-17.59114646911621,6.929537296295166,-11.658119201660156,0.975,0.5723703791111341,1.5364851894509952,-0.005812248875976422,-0.5593827429130802,-1.905594891747934,-1.908179510990725,-0.46269620307841963,-1.5735409107626193,-1.5048490112240882,0.9156183479960626,-0.5450310265449173,20.4893696056032,63.90998840332031,28.897933959960938,-12.628226280212402,-0.5706513642416831,-1.921550188366743,-1.9040260448530888,0.009586118551651797,0.00988627215557205,0.00490405876298321,-2.853256821208415,-9.607750941833714,-9.520130224265444,-0.5593827429130802,-1.905594891747934,-1.8967439681615739,-0.5834007335098929,-1.9295544463710854,-1.908179510990725,20.517058332375523,2.7541514102695195
-135.62245178222656,13.480228424072266,22.00033950805664,-2.0553174018859863,-6.409818649291992,-7.9260993003845215,-20.538145065307617,6.545350074768066,-10.011176109313965,0.9833333333333333,0.4055078502780187,1.9373355055376855,0.21933986674222616,-0.55600351082743,-1.8894504292017866,-1.906351678767873,-0.4673295656686482,-1.5892863310059675,-1.5207352752138206,0.7005736768556806,-0.7544809866454671,20.157613726021577,45.09218215942383,20.818119049072266,-20.958080291748047,-0.5651719197051904,-1.9135293849328832,-1.9059475869743487,0.00820771445517984,0.01609047437275491,0.0027439697952418535,-2.8258595985259523,-9.567646924664416,-9.529737934871743,-0.55600351082743,-1.8894504292017866,-1.90146524314762,-0.5765677971977555,-1.9277149427953766,-1.908179510990725,20.183890511083487,2.7410471633308924
-135.84185791015625,13.39342212677002,22.000045776367188,-2.163421154022217,-5.593553066253662,-7.977222442626953,-24.64741516113281,6.472068309783936,-7.894542694091797,0.9916666666666667,0.3074464855355705,2.7681934311678296,0.21819962859646402,-0.5534414567813003,-1.8663821506087215,-1.904533348529569,-0.4719415778084924,-1.6048395155943735,-1.5366063864515669,0.6932060268822201,-1.3855467525624598,19.669210439714504,97.95186996459961,-6.134777069091797,-12.972450256347656,-0.5605466516218994,-1.901262826495552,-1.9065612080507386,0.006523774189124179,0.024004701806240043,0.0015924423866765449,-2.8027332581094972,-9.50631413247776,-9.532806040253693,-0.5534414567813003,-1.8663821506087215,-1.904533348529569,-0.5697530515153472,-1.9264877259259592,-1.908179510990725,19.73013212629394,2.72340357895342
-136.1734619140625,13.309165954589844,21.961410522460938,-2.3775527477264404,-5.661823272705078,-8.006979942321777,-37.07666397094727,9.371466636657717,-4.388095378875732,1.0,0.10592534516912888,2.707860021238851,0.23846772108824865,-0.5525587455715576,-1.843816650431731,-1.9025461175205003,-0.4765462340215887,-1.6202046543479713,-1.5524609374309044,0.4705720529851255,-1.3844663408132458,19.794114509079623,-8.192424774169922,-3.5708999633789062,-25.695791244506836,-0.5571077904331416,-1.8847286113967066,-1.9059483462784184,0.004747592320745796,0.030007370276453692,0.002422935174755222,-2.785538952165708,-9.423643056983533,-9.529741731392091,-0.5525587455715576,-1.843816650431731,-1.9025461175205003,-0.5641524960723396,-1.918398934993359,-1.908179510990725,19.848051650085253,2.706411413109476
-136.54238891601562,13.22874355316162,21.898334503173828,-2.25435471534729,-5.58868932723999,-7.956010818481445,-40.84989929199219,11.059565544128418,-1.971325755119324,1.0083333333333333,0.24232861295539632,2.788600516814599,0.33864225668470294,-0.550539340463596,-1.8205783127916093,-1.8997240987147945,-0.4811340618587853,-1.6353761402879015,-1.568291971586861,0.5341627603314595,-1.3109127293213565,19.68976971818609,8.776073455810547,6.116294860839844,14.783763885498047,-0.5543851593113929,-1.8651644869563566,-1.9042669509046923,0.003413633976787659,0.03416710544538772,0.0032910468678162474,-2.7719257965569644,-9.325822434781783,-9.521334754523462,-0.550539340463596,-1.8205783127916093,-1.8997240987147945,-0.5593827429130802,-1.905594891747934,-1.908179510990725,19.74058898801197,2.688224434388426
-136.9549102783203,13.15719509124756,21.814027786254883,-2.1188433170318604,-5.7823662757873535,-7.925704956054687,-45.55144119262695,11.96595573425293,0.6816088557243347,1.0166666666666666,0.3886850224123619,2.6032605504300443,0.41683235104633454,-0.5473002986101596,-1.7988844748713588,-1.8962504957894084,-0.48569489768053664,-1.650366844245163,-1.5840940590517727,0.5826102504953229,-1.0421560870788258,19.77576799780657,-23.241233825683594,3.636703491211044,16.261367797851562,-0.5519686704508088,-1.8438224035810413,-1.901881147864429,0.003264732184395216,0.0358837154376708,0.0039943429809707835,-2.7598433522540438,-9.219112017905207,-9.509405739322146,-0.5473002986101596,-1.7988844748713588,-1.8962504957894084,-0.55600351082743,-1.8894504292017866,-1.906351678767873,19.811777404283752,2.6704473246206435
-137.3796844482422,13.10159683227539,21.717945098876957,-2.1853106021881104,-6.165308952331543,-7.912768363952637,-46.6630859375,11.517169952392578,3.052698135375977,1.025,0.3323222417536513,2.233226608049626,0.476662819993078,-0.5445309465955458,-1.780274253137612,-1.8922783056227994,-0.49023265556883283,-1.6652024630213096,-1.5998630449319626,0.4318852691795072,-0.7119654615058008,20.042551020307375,-45.953121185302734,1.5523910522459872,-7.97607421875,-0.549674157604432,-1.8219871683682065,-1.8990664732354143,0.0037198709055118392,0.03436250628657998,0.004910093421243877,-2.7483707880221595,-9.109935841841033,-9.495332366177072,-0.5445309465955458,-1.780274253137612,-1.8922783056227994,-0.5534414567813003,-1.8663821506087215,-1.904533348529569,20.059842250270457,2.6545446980820677
-137.80859375,13.06054973602295,21.60862922668457,-2.285557508468628,-6.38840913772583,-7.868763446807861,-46.85673522949219,11.216919898986816,5.504063129425049,1.0333333333333332,0.2434342585173579,2.027816352712125,0.5664629019222014,-0.5425023277745679,-1.7633757835316775,-1.8875577814401143,-0.4947535083002876,-1.6798972612174068,-1.6155926931106301,0.25945773514366033,-0.49044874099057423,20.18521683308116,-26.772022247314453,5.280590057373047,-12.02962875366211,-0.5474863318030854,-1.8013858949527979,-1.8956713598175234,0.004143049889574101,0.03188042113044747,0.005944858185377045,-2.7374316590154266,-9.00692947476399,-9.478356799087617,-0.5425023277745679,-1.7633757835316775,-1.8875577814401143,-0.5525587455715576,-1.843816650431731,-1.9025461175205003,20.19284122857326,2.639446401778583
-138.2119598388672,13.031306266784668,21.50027847290039,-2.279803991317749,-6.715890884399414,-7.797687530517578,-43.7775993347168,10.070574760437012,6.418336391448975,1.0416666666666667,0.26118099599734723,1.7222971777701739,0.6817529515098819,-0.54032581947459,-1.7490233070502594,-1.8818765068441987,-0.4992562234625758,-1.6944724554428257,-1.631274997334332,0.16127580814490303,-0.13931423372821627,20.348463317370552,-39.29780960083008,8.529109954833984,0.6904220581054688,-0.5450397465836919,-1.7824272262765035,-1.891537437682263,0.004008556745861712,0.028327376410766714,0.00705256104822837,-2.7251987329184595,-8.912136131382518,-9.457687188411315,-0.54032581947459,-1.7490233070502594,-1.8818765068441987,-0.550539340463596,-1.8205783127916093,-1.8997240987147945,20.34957930082062,2.625355920024566
-138.58883666992188,13.01146125793457,21.39359474182129,-2.317901849746704,-6.842357635498047,-7.705199241638184,-40.69673156738281,9.02507495880127,7.136533737182617,1.05,0.23518071629674475,1.6212139205443519,0.8164775965884967,-0.5383659801721171,-1.735513191045723,-1.8750725268726278,-0.5037426066306768,-1.7089350653682067,-1.646900601724937,0.0446611695527452,0.055066212346315216,20.3719882334081,-15.176010131835938,11.098594665527344,-4.571743011474609,-0.5426050745253961,-1.7654142019273262,-1.8866071233138295,0.003497484590899856,0.025039804956769263,0.008388777318621301,-2.7130253726269804,-8.827071009636631,-9.433035616569148,-0.5383659801721171,-1.735513191045723,-1.8750725268726278,-0.5473002986101596,-1.7988844748713588,-1.8962504957894084,20.372111610972635,2.6110804173623023
-138.9285888671875,13.002104759216309,21.28564453125,-2.493008136749268,-6.763077735900879,-7.622658729553223,-36.15671157836914,8.15236759185791,8.106082916259766,1.0583333333333333,0.07380097490927717,1.7258372969160565,0.9391956440160341,-0.5377509720478731,-1.7211312135714227,-1.8672458965058276,-0.5082238647310757,-1.723277825481302,-1.662460984195819,-0.16003689753464093,0.034824570726932305,20.299633529331295,9.513587951660156,9.904861450195312,-21.01275444030767,-0.5406952092129388,-1.7498635496673391,-1.8808062034571136,0.0028376419767053318,0.02312778246675318,0.009938504093845276,-2.703476046064694,-8.749317748336695,-9.404031017285568,-0.5377509720478731,-1.7211312135714227,-1.8672458965058276,-0.5445309465955458,-1.780274253137612,-1.8922783056227994,20.300294233937844,2.595780422201794
-139.2587127685547,12.99994945526123,21.17878532409668,-2.5912814140319824,-6.658013343811035,-7.486114501953125,-35.08624267578125,7.33929443359375,8.66375732421875,1.0666666666666667,-0.00862320868673283,1.8542516947844154,1.113503335990612,-0.5378228321202626,-1.7056791161148859,-1.8579667020392392,-0.5127057216654113,-1.7374918181155927,-1.6779440400461458,-0.3105018999033923,0.049963555784401405,20.15344640836293,12.60772705078125,16.38530731201172,-11.792793273925728,-0.5393535863178821,-1.734944522262794,-1.8739438827404016,0.00204614007849791,0.022661330921991723,0.011722541568656347,-2.6967679315894104,-8.67472261131397,-9.369719413702008,-0.5377509720478731,-1.7056791161148859,-1.8579667020392392,-0.5425023277745679,-1.7633757835316775,-1.8875577814401143,20.155900126799274,2.5788824928225957
-139.57699584960938,13.002552032470703,21.07749557495117,-2.6573166847229004,-6.725101470947266,-7.297181606292725,-33.762901306152344,6.455165863037109,8.553230285644531,1.075,-0.05762527992874489,1.8097712295435509,1.3369075549945206,-0.5383030427863355,-1.690597689202023,-1.8468258057476181,-0.5171915803552974,-1.7515801321922762,-1.6933342550940427,-0.47372928850575424,0.23322940374840326,20.06954997839085,-8.050575256347656,22.671947479248047,-7.924232482910156,-0.5385137293202357,-1.720388903396863,-1.8657974876019021,0.0010498841545006185,0.023200853750201905,0.013855549578896774,-2.6925686466011785,-8.601944516984315,-9.328987438009511,-0.5377509720478731,-1.690597689202023,-1.8468258057476181,-0.54032581947459,-1.7490233070502594,-1.8818765068441987,20.076495006068395,2.5609873622069252
-139.86929321289062,13.010647773742676,20.988000869750977,-2.868962526321411,-6.833738803863525,-7.159963130950928,-31.01438331604004,4.987825870513916,8.002649307250977,1.0833333333333333,-0.25010778788666377,1.7248078517446812,1.5053265046236373,-0.5403872743520577,-1.676224290437484,-1.8342814182090879,-0.5216948076415646,-1.7655486679459218,-1.7086199335791183,-0.7518646471836059,0.3649955335109855,20.081196710523837,-13.036479949951172,16.466217041015625,-25.39750099182129,-0.5385260202957292,-1.705829100074308,-1.85627846987488,0.0010764260157867457,0.02357839615125195,0.016198567022075498,-2.692630101478646,-8.52914550037154,-9.2813923493744,-0.5377509720478731,-1.676224290437484,-1.8342814182090879,-0.5403872743520577,-1.735513191045723,-1.8750725268726278,20.09858162940661,2.5428988574698432
-140.13906860351562,13.024320602416992,20.91448974609375,-3.029315710067749,-6.668478012084961,-6.940571308135986,-28.689191818237305,3.2564809322357178,6.99459981918335,1.0916666666666666,-0.3883902633273837,1.9128392570405195,1.7524178857340384,-0.5436238598797859,-1.6602839632954796,-1.8196779358279709,-0.5262250064738961,-1.7793843676400507,-1.7237839163776847,-0.9749325215555948,0.34505254871726365,19.84729685071042,19.831295013427734,26.32701873779297,-19.242382049560547,-0.539577596237263,-1.6907832545242591,-1.8451995516659487,0.002503401069015744,0.023901307213647333,0.018856329606778976,-2.697887981186315,-8.453916272621296,-9.225997758329743,-0.5377509720478731,-1.6602839632954796,-1.8196779358279709,-0.5436238598797859,-1.7211312135714227,-1.8672458965058276,19.874223178861175,2.5225577357011844
-140.39166259765625,13.04685115814209,20.86034393310547,-3.1444454193115234,-6.813426017761231,-6.889627933502197,-27.20113182067871,0.930732250213623,5.98821496963501,1.1,-0.4793812051346782,1.790072005830802,1.8283166693962034,-0.5476187032559082,-1.645366696580223,-1.8044419635830025,-0.5307884956676954,-1.7930957567782193,-1.7388209327408763,-1.131553301751224,0.4857183500277047,19.922415585129546,-17.39376068115245,6.1132049560546875,-13.81556510925293,-0.5415511424788699,-1.6756303511260193,-1.8326387650813836,0.004090124997070144,0.02386787933739669,0.021263334242206257,-2.70775571239435,-8.378151755630096,-9.163193825406918,-0.5378228321202626,-1.645366696580223,-1.8044419635830025,-0.5476187032559082,-1.7056791161148859,-1.8579667020392392,19.96043531431292,2.5026243446251137
-140.6097412109375,13.07069969177246,20.828012466430664,-3.1777634620666504,-6.786343097686768,-7.013186454772949,-23.601581573486328,-0.8138157725334167,4.089839458465576,1.1083333333333334,-0.48758217750995625,1.8399160525081273,1.7298852389777872,-0.5516818880684912,-1.630034062809322,-1.7900262532581876,-0.5353858447349328,-1.806679373968297,-1.7537378181846945,-1.1195692106792121,0.4238229574304963,20.003348634920293,3.2499504089356535,-14.827022552490234,-3.9981651306152344,-0.5443229536685157,-1.660501340464906,-1.8190506753251736,0.005413721263671928,0.02403310773308774,0.02269172971376209,-2.7216147683425786,-8.30250670232453,-9.095253376625868,-0.5383030427863355,-1.630034062809322,-1.7900262532581876,-0.5516818880684912,-1.690597689202023,-1.8468258057476181,20.039137150259577,2.483054155449499
-140.81053161621094,13.089844703674316,20.811737060546875,-3.148751974105835,-6.434332370758057,-7.098148345947266,-22.00619888305664,-1.6089588403701782,2.319075345993042,1.1166666666666667,-0.4337002157620362,2.2110704634758314,1.6713666698926852,-0.5552960565331748,-1.61160847561369,-1.7760981976757486,-0.5400133118727093,-1.820109444598411,-1.768538636498659,-1.0196997507385923,0.1492089442879032,19.841796005809847,42.24128723144531,-10.195426940917969,3.4813785552978516,-0.5477215564178836,-1.64470349774724,-1.8049051537107996,0.00599271782857902,0.025235014972420304,0.023090241159072284,-2.7386077820894177,-8.2235174887362,-9.024525768553998,-0.5403872743520577,-1.61160847561369,-1.7760981976757486,-0.5552960565331748,-1.676224290437484,-1.8342814182090879,19.86854095365041,2.4617393031875285
-141.01947021484375,13.106555938720703,20.799135208129883,-2.943403482437134,-6.421934127807617,-7.341720581054687,-23.04360008239746,-1.6326775550842283,1.7597373723983765,1.125,-0.2057398432314934,2.2391489899056234,1.4565547829848873,-0.5570105552267706,-1.5929489006978097,-1.7639602411508746,-0.544655066499599,-1.8333840187708927,-1.7832383051749163,-0.7464405554050585,0.11632285094903143,19.97046350242935,1.4877891540527344,-29.22866821289052,24.64181900024414,-0.5510462125928262,-1.6280484197993048,-1.790840918299157,0.005497221569446737,0.026670413191875488,0.022119811861949924,-2.755231062964131,-8.140242098996524,-8.954204591495785,-0.5436238598797859,-1.5929489006978097,-1.7639602411508746,-0.5570105552267706,-1.6602839632954796,-1.8196779358279709,19.984747108989623,2.4411683045684187
-141.2257080078125,13.110002517700195,20.790884017944336,-2.754176378250122,-6.588398456573486,-7.521702289581299,-22.87889671325684,-0.752546489238739,0.4006708264350891,1.1333333333333333,0.002507418595883326,2.0893044753025674,1.308431885043765,-0.5569896600718048,-1.5755380300702884,-1.7530566421088432,-0.5492966470001974,-1.8465135023548118,-1.7978471105258234,-0.5405060510731274,0.25039213158864726,20.164402158858582,-19.975719451904297,-21.597805023193466,22.707252502441406,-0.5537193726312298,-1.6110992331542664,-1.7775166595553311,0.004042960088795258,0.027960149698539483,0.020405531720214736,-2.7685968631561493,-8.055496165771332,-8.887583297776656,-0.5476187032559082,-1.5755380300702884,-1.7530566421088432,-0.5570105552267706,-1.645366696580223,-1.8044419635830025,20.173198988633132,2.421934176658524
-141.4214324951172,13.099617004394531,20.790122985839844,-2.690143346786499,-6.813413143157959,-7.683614730834961,-21.77915573120117,0.0274968966841697,-1.3578369617462158,1.1416666666666666,0.08319088544905728,1.883843791651584,1.1807609678343658,-0.5562964026930627,-1.5598393318065251,-1.74321696737689,-0.5539324503559729,-1.8595121634531995,-1.8123739185872974,-0.4664328002334855,0.39518075520914775,20.40828655166013,-27.00176239013672,-19.429492950439453,7.683963775634766,-0.5554549125186607,-1.593993760199527,-1.7652716603141088,0.0022217407998372965,0.027916895852525506,0.01848877871577903,-2.7772745625933037,-7.969968800997635,-8.826358301570544,-0.5516818880684912,-1.5598393318065251,-1.74321696737689,-0.5570105552267706,-1.630034062809322,-1.7900262532581876,20.417440764236172,2.404447925002858
-141.5944366455078,13.072017669677734,20.804244995117188,-2.5506591796875,-6.873178958892822,-7.727320671081543,-19.501710891723636,0.5287163853645325,-3.9627797603607178,1.15,0.2373949958390944,1.845640916208036,1.172508738229288,-0.5543181110610702,-1.5444589908381248,-1.7334460612249794,-0.5585517679481485,-1.8723826550435172,-1.8268193024308388,-0.3475404575618009,0.49445544212766274,20.444503535742665,-7.171897888183594,-5.244712829589844,16.738100051879883,-0.5559821571171766,-1.5768787458052875,-1.7539556219074672,0.001163099140843939,0.02649331836081224,0.01678656466535078,-2.779910785585883,-7.884393729026438,-8.769778109537336,-0.5543181110610702,-1.5444589908381248,-1.7334460612249794,-0.5570105552267706,-1.61160847561369,-1.7760981976757486,20.453434806332318,2.386934726758867
-141.75367736816406,13.029882431030272,20.82811546325684,-2.5305137634277344,-6.933589458465576,-7.758753776550293,-18.070077896118164,1.238691806793213,-5.971934795379639,1.1583333333333332,0.2707160444440011,1.807396289843986,1.1766297468381763,-0.5520621440240369,-1.5293973550894249,-1.7236408133346612,-0.5631522858150155,-1.8851276330025957,-1.8411829758752942,-0.3441339928015392,0.5563272805179043,20.498708743460345,-7.249259948730469,-3.77197265625,2.417449951171875,-0.5553353746153491,-1.5604365217004346,-1.7434641450392498,0.002133971008554038,0.02502088295427401,0.015854759031801266,-2.7766768730767453,-7.802182608502172,-8.717320725196249,-0.5520621440240369,-1.5293973550894249,-1.7236408133346612,-0.5570105552267706,-1.5929489006978097,-1.7639602411508746,20.509144019126385,2.3695498589419715
-141.88990783691406,12.970664978027344,20.86488914489746,-2.499824285507202,-6.943137645721436,-7.73682689666748,-15.695484161376951,1.891394019126892,-8.381953239440918,1.1666666666666667,0.3139673808776027,1.8201877425699653,1.2336557997390951,-0.5494457491833902,-1.514229123901342,-1.7133603483368354,-0.5677310003915438,-1.897746209035107,-1.8554609787781011,-0.3458673941636152,0.6045285845569698,20.479099924124398,-1.1457824707032316,2.6312255859376066,3.682737350463867,-0.5538224134066729,-1.544692566341141,-1.7333441664764417,0.0031085176778691565,0.024201686443113865,0.015649060078409487,-2.769112067033365,-7.723462831705705,-8.66672083238221,-0.5494457491833902,-1.514229123901342,-1.7133603483368354,-0.5569896600718048,-1.5755380300702884,-1.7530566421088432,20.490939772644982,2.3516768813380047
-142.00926208496094,12.89730739593506,20.905122756958008,-2.4826056957244877,-6.832511901855469,-7.749062538146973,-13.721152305603027,3.03436541557312,-9.78042697906494,1.175,0.34316363376722236,1.9518820908856709,1.2559054845010573,-0.54658605223533,-1.497963439810628,-1.7028944692993266,-0.5722858841601716,-1.9102292377001955,-1.8696517660222622,-0.3297769394582461,0.5323311633657913,20.416714423056007,13.275089263916122,-1.468276977539169,2.066230773925728,-0.5517416918393779,-1.529177648289209,-1.7233117319145386,0.0038515577684815764,0.024348982163587003,0.01592895140754882,-2.75870845919689,-7.645888241446045,-8.616558659572693,-0.54658605223533,-1.497963439810628,-1.7028944692993266,-0.5562964026930627,-1.5598393318065251,-1.74321696737689,20.4263153096664,2.332916705130667
-142.1158447265625,12.812179565429688,20.943199157714844,-2.497143507003784,-6.586209774017334,-7.648987770080566,-12.161192893981934,4.280625820159912,-10.403800010681152,1.1833333333333333,0.3404054921417976,2.2158336994318777,1.3891968661266123,-0.543749339800815,-1.479498158982029,-1.6913178287482715,-0.5768171286585116,-1.9225583890250457,-1.8837460812618312,-0.3653479459191978,0.3968267454312622,20.194120001295143,29.556255340576172,12.00897216796875,-1.7445373535155717,-0.5492322792609284,-1.5131094137243097,-1.712931904188815,0.004212615923599403,0.025536560756851793,0.016610337855522392,-2.7461613963046423,-7.565547068621549,-8.564659520944074,-0.543749339800815,-1.479498158982029,-1.6913178287482715,-0.5543181110610702,-1.5444589908381248,-1.7334460612249794,20.201322561015296,2.311954615645991
-142.2133331298828,12.731711387634276,20.974794387817383,-2.4728589057922363,-6.260443210601807,-7.723242282867432,-10.858924865722656,4.363577842712402,-9.49317455291748,1.1916666666666667,0.3762135610292141,2.5540441833240584,1.3474234287378932,-0.5406142267922381,-1.4582144574543285,-1.6800893001754558,-0.5813222472151136,-1.9347101761704986,-1.89774682542996,-0.28394057833794417,0.12183861947305254,20.050175038532085,39.09198760986328,-8.910541534423828,2.914152145385742,-0.546491502407162,-1.4958605070475506,-1.7022605519789102,0.0045230074652303125,0.028069111457720206,0.017262897383065433,-2.7324575120358103,-7.4793025352377525,-8.511302759894551,-0.5406142267922381,-1.4582144574543285,-1.6800893001754558,-0.5520621440240369,-1.5293973550894249,-1.7236408133346612,20.05255559715512,2.2894001840445117
-142.3247528076172,12.646671295166016,20.992111206054688,-2.607106924057007,-6.371416091918945,-7.678311824798584,-12.181798934936523,5.794004917144775,-8.45684814453125,1.2,0.254244612153526,2.4533674730994175,1.424570127204932,-0.5384955216909587,-1.4377697285118334,-1.668217882448748,-0.5858097098958716,-1.946691590574764,-1.911648641117033,-0.46218618765737657,0.19756610983656261,20.110280266519656,-13.31674575805664,5.391654968261719,-16.10976219177246,-0.5437781779405464,-1.4775349817320322,-1.6911759658017274,0.004413711516589148,0.0305048932794269,0.017884896028042396,-2.718890889702732,-7.387674908660161,-8.455879829008637,-0.5384955216909587,-1.4377697285118334,-1.668217882448748,-0.5494457491833902,-1.514229123901342,-1.7133603483368354,20.11656086009204,2.267181096081209
-142.42929077148438,12.569814682006836,20.999622344970703,-2.626011848449707,-6.12261438369751,-7.499119758605957,-11.066452026367188,5.7711052894592285,-6.976908206939697,1.2083333333333333,0.2487320605281398,2.710984916573948,1.6335769959252016,-0.5364227545198909,-1.4151781875403837,-1.6546047408160378,-0.5902798995168707,-1.9584847421376004,-1.9254370139571666,-0.5271544710132026,0.09786750034636821,19.826569891416863,29.856204986572266,21.503047943115234,-2.2685909271240234,-0.5411735790078465,-1.4577247944598404,-1.6794248442975679,0.004061545558959253,0.032794382786836454,0.018936350025795384,-2.7058678950392325,-7.288623972299202,-8.39712422148784,-0.5364227545198909,-1.4151781875403837,-1.6546047408160378,-0.54658605223533,-1.497963439810628,-1.7028944692993266,19.83381817863547,2.242363824714379
-142.53372192382812,12.517852783203123,20.99154663085937,-2.800508737564087,-6.435033798217773,-7.425853729248047,-10.676397323608398,4.4863457679748535,-3.6567907333374015,1.2166666666666666,0.08907069374449073,2.4076126839666268,1.734036968069665,-0.5356804987386867,-1.3951147485073285,-1.6401544327487907,-0.5947439036730264,-1.9701106983751615,-1.9391049675634064,-0.7791966470114562,0.3334535813391811,19.99221361374545,-37.49032974243164,8.791923522949219,-20.939626693725586,-0.5389924683085179,-1.4371550561991806,-1.6668768369874605,0.0032816708511667634,0.03349322611897395,0.02023870609384586,-2.694962341542589,-7.1857752809959035,-8.334384184937303,-0.5356804987386867,-1.3951147485073285,-1.6401544327487907,-0.543749339800815,-1.479498158982029,-1.6913178287482715,20.010171010844726,2.2188747872507593
-142.6108856201172,12.486197471618652,20.981172561645508,-2.9571032524108887,-6.7654290199279785,-7.513906478881836,-7.312583446502685,2.7599213123321533,-1.991660714149475,1.225,-0.05009609197729725,2.0913803169165046,1.6728333888346114,-0.5360979661718309,-1.377686579199691,-1.6262141545085023,-0.5992113867244584,-1.9815914198684923,-1.9526567521843106,-0.9522611639262355,0.505235561277339,20.28913239470634,-39.64742660522461,-10.566329956054688,-18.79134178161621,-0.5374621935827211,-1.416792740242713,-1.6538561021395068,0.00206875970357771,0.03223983030054391,0.02148729209114746,-2.6873109679136054,-7.083963701213565,-8.269280510697534,-0.5356804987386867,-1.377686579199691,-1.6262141545085023,-0.5406142267922381,-1.4582144574543285,-1.6800893001754558,20.317749817010338,2.1977246907118104
