Euler_X,Euler_Y,Euler_Z,Acc_X,Acc_Y,Acc_Z,Gyr_X,Gyr_Y,Gyr_Z,time_seconds,filtered_accel_x,filtered_accel_y,filtered_accel_z,Vel_X,Vel_Y,Vel_Z,Displacement_X,Displacement_Y,Displacement_Z,Acc_Global_X,Acc_Global_Y,Acc_Global_Z,Dy_dt,Dz_dt,Dx_dt,Vel_X_Roll_Mean,Vel_Y_Roll_Mean,Vel_Z_Roll_Mean,Acc_Global_X_Roll_Std,Acc_Global_Y_Roll_Std,Acc_Global_Z_Roll_Std,Vel_X_Roll_Std,Vel_Y_Roll_Std,Vel_Z_Roll_Std,Acc_Global_X_Roll_Sum,Acc_Global_Y_Roll_Sum,Acc_Global_Z_Roll_Sum,Vel_X_Roll_Sum,Vel_Y_Roll_Sum,Vel_Z_Roll_Sum,Acc_Global_X_Roll_Max,Acc_Global_Y_Roll_Max,Acc_Global_Z_Roll_Max,Vel_X_Roll_Max,Vel_Y_Roll_Max,Vel_Z_Roll_Max,Vel_X_Roll_Min,Vel_Y_Roll_Min,Vel_Z_Roll_Min,Displacement_X_Roll_Mean,Displacement_Y_Roll_Mean,Displacement_Z_Roll_Mean,Displacement_X_Roll_Std,Displacement_Y_Roll_Std,Displacement_Z_Roll_Std,Displacement_X_Roll_Sum,Displacement_Y_Roll_Sum,Displacement_Z_Roll_Sum,Displacement_X_Roll_Max,Displacement_Y_Roll_Max,Displacement_Z_Roll_Max,Displacement_X_Roll_Min,Displacement_Y_Roll_Min,Displacement_Z_Roll_Min
-134.57130432128906,8.09506607055664,18.445392608642575,-1.0388768911361694,-7.562953472137451,-7.330729961395264,5.917618751525879,5.608480453491211,-8.818880081176758,0.0,-1.0301126849715914,-7.499150644287046,-7.268886224888377,0.0,0.0,0.0,0.0,0.0,0.0,0.4042220223743679,0.22485305495440058,20.383702182483493,,,,,,,,,,,,,,,,,,,,,,,,,,,,,,,,,,,,,,,,,,
-134.53314208984375,8.013421058654785,18.45718002319336,-1.0267363786697388,-7.719768524169922,-7.374853610992432,6.026645183563232,4.834021091461182,-8.567052841186523,0.008333333333333333,-1.0006203564866816,-7.527577109745399,-7.189473580549152,-0.008338502970722346,-0.06272980924787833,-0.0599122798379096,-6.948752475601954e-05,-0.000522748410398986,-0.0004992689986492467,0.39752807916879773,0.29810464800413505,20.524036796965344,-18.817806243896484,-5.294837951660156,1.4568614959716797,,,,,,,,,,,,,,,,,,,,,,,,,,,,,,,,,,,,,,,
-134.48593139648438,7.937059879302978,18.47711753845215,-0.9960350394248962,-7.657115459442139,-7.283552169799805,6.966765880584717,3.776333093643189,-8.875014305114746,0.016666666666666666,-0.953075721910177,-7.336829448727713,-6.976081089814406,-0.016280800653307153,-0.1238700546539426,-0.11804628891969632,-0.00020516086353357914,-0.0015549988658485076,-0.0014829880729800493,0.39456239793657416,0.3103998117915736,20.41290562252441,7.518367767333984,10.956172943115234,3.6841607093811035,,,,,,,,,,,,,,,,,,,,,,,,,,,,,,,,,,,,,,,
-134.43289184570312,7.863248348236084,18.504539489746094,-0.9295864701271056,-7.478734016418457,-7.259945392608643,7.559247970581055,2.836648464202881,-9.206767082214355,0.025,-0.8707467031296232,-7.033476211717481,-6.832391037630231,-0.023537023179387346,-0.18248235641825494,-0.17498288089994823,-0.000401302723361807,-0.0030756851693339656,-0.0029411787471462845,0.4626201825371808,0.20918849799271075,20.262015276321318,21.405773162841797,2.832813262939453,7.973828315734877,,,,,,,,,,,,,,,,,,,,,,,,,,,,,,,,,,,,,,,
-134.37925720214844,7.793883800506592,18.53321647644043,-0.9467257857322692,-7.347107887268066,-7.271054744720459,7.597862243652344,2.426705837249756,-9.006837844848633,0.03333333333333333,-0.8725571309753724,-6.780560030517994,-6.724547268180461,-0.030808332604182115,-0.2389870233392382,-0.23102077480145208,-0.000658038828396658,-0.005067243697160951,-0.004866351870491718,0.4582126072058407,0.09221723686348508,20.179477243770386,15.795135498046875,-1.3331222534179688,-2.056717872619629,-0.01579293188151979,-0.1216138487318628,-0.11679244489180125,0.04813625535749131,0.14718843980842808,0.04790363601008613,0.01215171214922797,0.09453013556516315,0.09125738145757711,-4.937960565090179,-37.765679359436035,-36.5201358795166,-0.07896465940759896,-0.608069243659314,-0.5839622244590063,-0.9295864701271056,-7.347107887268066,-7.259945392608643,0.0,0.0,0.0,-0.030808332604182115,-0.2389870233392382,-0.23102077480145208,-0.00026679798800961275,-0.002044135228548482,-0.00195795753785346,0.00026696097067170903,0.0020576467844165046,0.001975629488766215,-0.0013339899400480637,-0.01022067614274241,-0.009789787689267299,0.0,0.0,0.0,-0.000658038828396658,-0.005067243697160951,-0.004866351870491718
-134.32785034179688,7.726070880889893,18.56328392028809,-0.9520769715309144,-7.276472091674805,-7.178725719451904,7.327733516693115,2.092362880706787,-8.919645309448242,0.041666666666666664,-0.8625210367084025,-6.591379208489859,-6.514968744516553,-0.03799600791008547,-0.293915183409987,-0.28531218100575667,-0.0009746722276473704,-0.007516536892244177,-0.007243953378873024,0.4244729406416825,0.08896640489380962,20.066681106343577,8.476295471191406,11.079483032226562,-0.642142295837429,-0.023392133463536885,-0.18039688541386023,-0.17385488109295258,0.03997733082290117,0.19150058289032906,0.06990241715064216,0.011677724488594372,0.09132959657276193,0.08914799048777737,-4.851160645484924,-37.47919797897339,-36.36813163757324,-0.11696066731768442,-0.9019844270693012,-0.8692744054647629,-0.9295864701271056,-7.276472091674805,-7.178725719451904,-0.008338502970722346,-0.06272980924787833,-0.0599122798379096,-0.03799600791008547,-0.293915183409987,-0.28531218100575667,-0.00046173243353908686,-0.0035474426069973175,-0.003406748213628065,0.0003622775945029112,0.0028019933495375764,0.0027030367046949433,-0.0023086621676954343,-0.017737213034986588,-0.017033741068140325,-6.948752475601954e-05,-0.000522748410398986,-0.0004992689986492467,-0.0009746722276473704,-0.007516536892244177,-0.007243953378873024
-134.28018188476562,7.659729480743408,18.5931339263916,-0.940853476524353,-7.206787586212158,-7.22956657409668,6.871954441070557,2.056938648223877,-8.850104331970215,0.05,-0.8360920572032285,-6.405352226526967,-6.449917368139372,-0.04496344172011237,-0.34729311863104506,-0.33906149240691813,-0.0013493675753149734,-0.010410646214169553,-0.010069465815597343,0.45171803649584474,-0.0003374344552703137,20.051365930773493,8.362140655517578,-6.100902557373047,1.3468194007873668,-0.03071712121341489,-0.23730954729049358,-0.2296847236067543,0.02543594086089251,0.17851253718446883,0.04188682975286138,0.01135681863609654,0.08828637675172173,0.08734258454146789,-4.765277743339539,-36.966217041015625,-36.22284460067749,-0.15358560606707444,-1.186547736452468,-1.1484236180337715,-0.9295864701271056,-7.206787586212158,-7.178725719451904,-0.016280800653307153,-0.1238700546539426,-0.11804628891969632,-0.04496344172011237,-0.34729311863104506,-0.33906149240691813,-0.0007177084436508776,-0.005525022167751431,-0.005320787577017684,0.00045590616073945696,0.0035286453172009022,0.003422216633365906,-0.0035885422182543878,-0.027625110838757155,-0.02660393788508842,-0.00020516086353357914,-0.0015549988658485076,-0.0014829880729800493,-0.0013493675753149734,-0.010410646214169553,-0.010069465815597343
-134.23623657226562,7.592267513275146,18.621137619018555,-0.9409670829772948,-7.079092502593994,-7.139946937561035,6.474676609039307,2.223507881164551,-8.725619316101074,0.058333333333333334,-0.821225041524381,-6.163983176090693,-6.245731624023661,-0.051806983732815545,-0.3986596450984675,-0.39110925594044865,-0.001781092439755103,-0.01373280992332345,-0.013328709615101082,0.431328495945414,-0.04149471744557598,19.89910530719776,15.323410034179688,10.754356384277344,-0.013632774353014021,-0.037822357829316575,-0.2922674653793985,-0.28429731701090477,0.008371779402781613,0.149755741183271,0.0554968444263549,0.011178800596061727,0.08550059802343275,0.08543560593463655,-4.710209786891937,-36.38819408416748,-36.07923936843872,-0.18911178914658286,-1.4613373268969927,-1.4214865850545237,-0.9295864701271056,-7.079092502593994,-7.139946937561035,-0.023537023179387346,-0.18248235641825494,-0.17498288089994823,-0.051806983732815545,-0.3986596450984675,-0.39110925594044865,-0.0010328947588951823,-0.007960584379246419,-0.0076899318854418905,0.0005483543891273342,0.0042353343873586125,0.004128563712324217,-0.005164473794475911,-0.039802921896232094,-0.03844965942720945,-0.000401302723361807,-0.0030756851693339656,-0.0029411787471462845,-0.001781092439755103,-0.01373280992332345,-0.013328709615101082
-134.20501708984375,7.5306525230407715,18.645790100097656,-0.9006868600845337,-7.0720415115356445,-7.042742729187012,4.986476898193359,2.0906341075897217,-8.015962600708008,0.06666666666666667,-0.7664327000381188,-6.045378927450019,-6.036528313419493,-0.05819392289979987,-0.44903780282721767,-0.44141365855227777,-0.002266041797253435,-0.017474791613550263,-0.017007156769703397,0.43089191644668495,0.021108723174926347,19.821948845678133,0.8461189270019531,11.664505004882812,4.833626747131334,-0.04475373777339907,-0.3455785546611911,-0.33758347254137067,0.020423113002613413,0.12089079991200209,0.08789908907844639,0.01084633657946729,0.08299881987307886,0.08327033989764605,-4.681310176849365,-35.98150157928467,-35.86203670501709,-0.22376868886699536,-1.7278927733059555,-1.6879173627068533,-0.9006868600845337,-7.0720415115356445,-7.042742729187012,-0.030808332604182115,-0.2389870233392382,-0.23102077480145208,-0.05819392289979987,-0.44903780282721767,-0.44141365855227777,-0.0014058425736735078,-0.010840405668089678,-0.010503127489953312,0.0006381737421000147,0.0049229888081040625,0.00481844967121425,-0.007029212868367539,-0.05420202834044839,-0.05251563744976656,-0.000658038828396658,-0.005067243697160951,-0.004866351870491718,-0.002266041797253435,-0.017474791613550263,-0.017007156769703397
-134.1817169189453,7.476390838623047,18.670642852783203,-0.9059002995491028,-7.178157329559326,-6.9741973876953125,4.053248405456543,1.3785837888717651,-7.332292556762695,0.075,-0.757555944725932,-6.040074867844798,-5.858354488212838,-0.0645068891058493,-0.49937176005925765,-0.49023327928738475,-0.002803599206468846,-0.02163622294737741,-0.02109243409709827,0.3823762473653731,0.13057167523554025,19.851054060517875,-12.733898162841797,8.225440979003906,-0.625612735748291,-0.05149344907373251,-0.39765550200519495,-0.38942597343855717,0.02317010490295295,0.08708577406831045,0.10348431848543536,0.010478146173706092,0.08106443371633061,0.08099988963000243,-4.640484690666199,-35.81255102157593,-35.56517934799194,-0.25746724536866256,-1.9882775100259749,-1.947129867192786,-0.9006868600845337,-7.0720415115356445,-6.9741973876953125,-0.03799600791008547,-0.293915183409987,-0.28531218100575667,-0.0645068891058493,-0.49937176005925765,-0.49023327928738475,-0.0018349546492879454,-0.014154201518132969,-0.013748343935274623,0.0007250672721041766,0.005595921106601678,0.00549028357844899,-0.009174773246439727,-0.07077100759066485,-0.06874171967637312,-0.0009746722276473704,-0.007516536892244177,-0.007243953378873024,-0.002803599206468846,-0.02163622294737741,-0.02109243409709827
-134.1593475341797,7.43214750289917,18.69752311706543,-0.9017302989959716,-7.255899906158447,-7.009998798370361,3.8992555141448975,0.4381571412086487,-6.704488754272461,0.08333333333333333,-0.7394098640695373,-6.0058175239349865,-5.785758960084141,-0.07066863797309544,-0.5494202394253825,-0.5384479372880859,-0.0033925045229113077,-0.026214724942588932,-0.025579500241165655,0.3809007438717257,0.15620961389217008,19.930859514552953,-9.329109191894531,-4.296169281005859,0.5004000663757457,-0.058027975086334505,-0.44875651320827414,-0.440053124695023,0.02097984279867551,0.08059995325173913,0.1042158140393299,0.010138700474709312,0.07984310356426315,0.07873412569114319,-4.590138018131256,-35.79197883605957,-35.3964524269104,-0.2901398754316725,-2.2437825660413706,-2.200265623475115,-0.9006868600845337,-7.0720415115356445,-6.9741973876953125,-0.04496344172011237,-0.34729311863104506,-0.33906149240691813,-0.07066863797309544,-0.5494202394253825,-0.5384479372880859,-0.0023185211083407327,-0.017893839128201923,-0.01741545330773315,0.0008092563497654024,0.006259602991366648,0.006144175338552349,-0.011592605541703663,-0.08946919564100961,-0.08707726653866575,-0.0013493675753149734,-0.010410646214169553,-0.010069465815597343,-0.0033925045229113077,-0.026214724942588932,-0.025579500241165655
-134.1410369873047,7.396542549133301,18.726703643798828,-0.8516649007797241,-7.258885860443115,-6.97248649597168,3.389019250869751,-0.5569943189620972,-6.087337970733643,0.09166666666666666,-0.6759482641653712,-5.897101491779116,-5.6408120301107765,-0.07630154017447353,-0.5985627518568751,-0.5854547042056757,-0.004028350691031921,-0.03120274787472956,-0.030458289442879618,0.410686956134693,0.19374404942107126,19.900893143921568,-0.35831451416015625,4.501476287841797,6.007847785949694,-0.06429559477720674,-0.49901043985344007,-0.4893317670547745,0.03183034190161021,0.09110303852318054,0.06901068682528125,0.009721096327958059,0.07908774830799195,0.07680598407883062,-4.500949442386627,-35.84407711029053,-35.1393723487854,-0.3214779738860337,-2.4950521992672003,-2.4466588352738725,-0.8516649007797241,-7.0720415115356445,-6.97248649597168,-0.051806983732815545,-0.3986596450984675,-0.39110925594044865,-0.07630154017447353,-0.5985627518568751,-0.5854547042056757,-0.0028543177314841227,-0.022052259460313924,-0.021493218033189605,0.0008900072869017432,0.006917316965057124,0.006782602354485359,-0.014271588657420613,-0.11026129730156961,-0.10746609016594802,-0.001781092439755103,-0.01373280992332345,-0.013328709615101082,-0.004028350691031921,-0.03120274787472956,-0.030458289442879618
-134.12440490722656,7.372024059295654,18.754602432250977,-0.8464788198471069,-7.2514424324035645,-6.992099285125732,3.2012417316436768,-1.303290843963623,-5.091227054595947,0.1,-0.6579499053496771,-5.77897319452329,-5.55408388687122,-0.08178445605238752,-0.6467208618112359,-0.6317387365962692,-0.0047098878248018165,-0.03659208838982319,-0.035722778914515196,0.4195174384480449,0.17354792542673989,19.908677259541793,0.8932113647460938,-2.353534698486328,0.6223297119140625,-0.07029108924112112,-0.5486226831959937,-0.5374576631859387,0.02953462201609066,0.08067709621233417,0.02914506696681547,0.009329575939184558,0.0781995860431895,0.07524661230500793,-4.406461179256439,-36.0164270401001,-34.9915246963501,-0.35145544620560565,-2.743113415979969,-2.6872883159296936,-0.8464788198471069,-7.0720415115356445,-6.97248649597168,-0.05819392289979987,-0.44903780282721767,-0.44141365855227777,-0.08178445605238752,-0.6467208618112359,-0.6317387365962692,-0.0034400768084934656,-0.02662411515361387,-0.025972031893072428,0.0009674982229785771,0.007567713628952545,0.0074083924707928715,-0.017200384042467327,-0.13312057576806935,-0.12986015946536214,-0.002266041797253435,-0.017474791613550263,-0.017007156769703397,-0.0047098878248018165,-0.03659208838982319,-0.035722778914515196
-134.10916137695312,7.353316783905029,18.77814102172852,-0.8458829522132874,-7.172490119934082,-7.055436134338379,3.11118221282959,-1.4887635707855225,-4.163120269775391,0.10833333333333334,-0.6447037706059298,-5.591038819270718,-5.511316386500234,-0.0871569874741036,-0.6933128519718252,-0.6776663731504379,-0.00543619605375268,-0.042369695489588396,-0.04136999869076884,0.4485488825877333,0.07470858838263451,19.89625470934955,9.47427749633789,-7.600421905517578,0.07150411605834961,-0.07608370215598188,-0.5974776930249153,-0.5847082061055706,0.030684474272622546,0.043990283674565187,0.034112942867647336,0.008923413257110657,0.07672147294711543,0.07402562587773086,-4.351657271385193,-36.116875648498535,-35.004218101501465,-0.3804185107799094,-2.9873884651245763,-2.9235410305278533,-0.8458829522132874,-7.172490119934082,-6.97248649597168,-0.0645068891058493,-0.49937176005925765,-0.49023327928738475,-0.0871569874741036,-0.6933128519718252,-0.6776663731504379,-0.004074107659793314,-0.031603095928821504,-0.030844600277285517,0.0010416776705804444,0.00820583769879356,0.008024274082999617,-0.02037053829896657,-0.1580154796441075,-0.15422300138642758,-0.002803599206468846,-0.02163622294737741,-0.02109243409709827,-0.00543619605375268,-0.042369695489588396,-0.04136999869076884
-134.1048126220703,7.340022087097168,18.79535675048828,-0.7987308502197266,-7.1171040534973145,-7.078062534332275,1.8922516107559204,-1.3316198587417605,-3.2371139526367188,0.11666666666666667,-0.5854164256331108,-5.428766559235594,-5.428050494647578,-0.09203545768771285,-0.7385525732987885,-0.722900127272501,-0.006203158201150288,-0.0485243002670783,-0.04739416641803969,0.5055767775534465,0.035572121200387566,19.866502228186043,6.646327972412109,-2.715167999267578,5.658252239227295,-0.08158941587235458,-0.6453138556728215,-0.631241575702594,0.03650545650659815,0.06372592077634763,0.04401680565256267,0.008476153360189828,0.07480072379586439,0.07291072622495048,-4.244487822055817,-36.05582237243652,-35.10808324813843,-0.4079470793617729,-3.2265692783641073,-3.1562078785129697,-0.7987308502197266,-7.1171040534973145,-6.97248649597168,-0.07066863797309544,-0.5494202394253825,-0.5384479372880859,-0.09203545768771285,-0.7385525732987885,-0.722900127272501,-0.004754019458729603,-0.03698071139276168,-0.0361049467414738,0.0011121638462433484,0.0088280511466932,0.008631093034215238,-0.023770097293648013,-0.1849035569638084,-0.180524733707369,-0.0033925045229113077,-0.026214724942588932,-0.025579500241165655,-0.006203158201150288,-0.0485243002670783,-0.04739416641803969
-134.10694885253906,7.329156875610352,18.80411529541016,-0.804576575756073,-7.108902931213379,-7.083884716033936,1.2519214153289795,-0.8818597793579102,-2.264183282852173,0.125,-0.5795835756195278,-5.315163473099196,-5.328678748500736,-0.09686532081787558,-0.7828456022412819,-0.7673057835100071,-0.007010369207965918,-0.05504801361908899,-0.05378838128062308,0.5011231514616836,0.02408397556477395,19.865523982912023,0.9841346740722656,-0.6986618041993253,-0.7014870643615723,-0.08682875244131061,-0.6919989282360014,-0.6770131449469782,0.025572819666598273,0.07137666665748453,0.05099124576768087,0.008127381907900525,0.07280540638845803,0.07192274076254992,-4.147334098815918,-35.908825397491455,-35.181969165802,-0.43414376220655304,-3.459994641180007,-3.3850657247348908,-0.7987308502197266,-7.108902931213379,-6.97248649597168,-0.07630154017447353,-0.5985627518568751,-0.5854547042056757,-0.09686532081787558,-0.7828456022412819,-0.7673057835100071,-0.005477592395740524,-0.042747369128061694,-0.04174672294936529,0.0011797495473735748,0.009433811352075522,0.009229757676003626,-0.02738796197870262,-0.21373684564030845,-0.20873361474682645,-0.004028350691031921,-0.03120274787472956,-0.030458289442879618,-0.007010369207965918,-0.05504801361908899,-0.05378838128062308
-134.11968994140625,7.32267427444458,18.80916786193848,-0.8655850291252136,-7.071092128753662,-7.001068592071533,0.0281628519296646,-0.8658379316329956,-1.6423076391220093,0.13333333333333333,-0.6284541192275162,-5.17327702055123,-5.142253575411982,-0.10210243847810488,-0.8259562440792088,-0.8101578966384403,-0.007861222861950125,-0.06193098231974906,-0.06053969708594341,0.4211362405525123,0.034241551136387646,19.789279260043145,4.537296295166016,9.937934875488388,-7.321014404296875,-0.09198893210203687,-0.737477626680468,-0.7219537834335311,0.02910709825314513,0.070046599155755,0.04301385313972,0.007961522516016143,0.07084347561368323,0.07060062756324317,-4.1612542271614075,-35.721031665802,-35.210551261901855,-0.4599446605101844,-3.68738813340234,-3.6097689171676555,-0.7987308502197266,-7.071092128753662,-6.992099285125732,-0.08178445605238752,-0.6467208618112359,-0.6317387365962692,-0.10210243847810488,-0.8259562440792088,-0.8101578966384403,-0.006244166829924166,-0.04889301601706559,-0.047763004477978044,0.0012460384066280486,0.01002341063822556,0.009817365172757683,-0.03122083414962083,-0.24446508008532794,-0.23881502238989022,-0.0047098878248018165,-0.03659208838982319,-0.035722778914515196,-0.007861222861950125,-0.06193098231974906,-0.06053969708594341
-134.1432342529297,7.321875095367432,18.81512451171875,-0.9104451537132264,-7.196072578430176,-6.956537246704102,-1.2729250192642212,-1.4827055931091309,-1.1646535396575928,0.14166666666666666,-0.660392071288403,-5.194376231914718,-4.996112308306318,-0.10760570573884157,-0.8692427126784981,-0.8517921658743263,-0.008757937076440472,-0.06917467159206989,-0.06763796513489613,0.3462693087174392,0.13881400321617543,19.85323700980354,-14.99765396118164,5.343761444091797,-5.383214950561537,-0.0971531820393277,-0.7819819968539206,-0.7659644692891424,0.04605015986075705,0.05050610479149007,0.054702552470354736,0.008061455566357368,0.06945726175852122,0.06887006421675768,-4.225220561027527,-35.66566181182861,-35.174989223480225,-0.4857659101966385,-3.9099099842696026,-3.829822346445712,-0.7987308502197266,-7.071092128753662,-6.956537246704102,-0.0871569874741036,-0.6933128519718252,-0.6776663731504379,-0.10760570573884157,-0.8692427126784981,-0.8517921658743263,-0.007053776680251897,-0.05540953265751493,-0.05414604172205423,0.0013132150510428242,0.010601684182668276,0.010390546700484062,-0.035268883401259485,-0.27704766328757463,-0.27073020861027114,-0.00543619605375268,-0.042369695489588396,-0.04136999869076884,-0.008757937076440472,-0.06917467159206989,-0.06763796513489613
-134.17039489746094,7.327514171600342,18.826875686645508,-0.9008364081382751,-7.160891056060791,-6.908224582672119,-1.8034470081329343,-2.448106288909912,-1.1502585411071775,0.15,-0.6376796019562179,-5.055486893643552,-4.847883675683229,-0.11291970242181004,-0.9113717701255276,-0.8921911965050199,-0.009698934596622223,-0.07676943634311595,-0.07507289177243796,0.34428236785556604,0.15394216320142765,19.793546729354595,4.221782684326172,5.797519683837891,1.153049468994154,-0.10230572502886899,-0.825593780484661,-0.808869433960059,0.05241795747183474,0.04847182383389202,0.07630361242918506,0.008304577446858388,0.06831325394799001,0.06690440175304226,-4.280174016952515,-35.65406274795532,-35.027777671813965,-0.5115286251443449,-4.127968902423305,-4.044347169800295,-0.7987308502197266,-7.071092128753662,-6.908224582672119,-0.09203545768771285,-0.7385525732987885,-0.722900127272501,-0.11291970242181004,-0.9113717701255276,-0.8921911965050199,-0.007906324388825806,-0.06228948082822043,-0.060886620338388056,0.0013824109757484856,0.011170525143992764,0.010947404030395366,-0.03953162194412903,-0.31144740414110217,-0.30443310169194027,-0.006203158201150288,-0.0485243002670783,-0.04739416641803969,-0.009698934596622223,-0.07676943634311595,-0.07507289177243796
-134.20030212402344,7.340136528015137,18.84469413757324,-0.914877951145172,-7.151662826538086,-6.888263702392578,-2.216924905776977,-3.617486000061035,-0.9948441982269288,0.15833333333333333,-0.6386977514384561,-4.943857849870826,-4.729481930587787,-0.11824218368379717,-0.9525705855411178,-0.9316035459265848,-0.010684286127320534,-0.08470752455595859,-0.08283625465515951,0.32642940553819155,0.1617827546933756,19.77487480438973,1.1073875427246094,2.395305633544922,-1.6849851608276234,-0.10754707022808585,-0.8683973829331268,-0.8506101176908757,0.04601986592787528,0.04849231961850728,0.07839699382022419,0.008470505474853961,0.06718072272049157,0.06493518509256342,-4.39632111787796,-35.688621520996094,-34.83797883987427,-0.5377353511404293,-4.341986914665634,-4.2530505884543786,-0.804576575756073,-7.071092128753662,-6.888263702392578,-0.09686532081787558,-0.7828456022412819,-0.7673057835100071,-0.11824218368379717,-0.9525705855411178,-0.9316035459265848,-0.008802549974059853,-0.0695261256859965,-0.06797503798581202,0.0014529655263493385,0.011729938967023117,0.011487976651096759,-0.04401274987029927,-0.3476306284299825,-0.3398751899290601,-0.007010369207965918,-0.05504801361908899,-0.05378838128062308,-0.010684286127320534,-0.08470752455595859,-0.08283625465515951
-134.2265167236328,7.363626956939697,18.869308471679688,-0.9430775046348572,-7.322007656097412,-6.87845516204834,-1.88960063457489,-5.044121742248535,-0.6832982301712036,0.16666666666666666,-0.6536349592860591,-5.01136676332773,-4.62237303777649,-0.12368914167784767,-0.9943319752355155,-0.9701233212413889,-0.011715028974635932,-0.09299362434958788,-0.09092061566550441,0.275564902864345,0.2823541076712145,19.89259276447271,-20.44137954711914,1.1770248413085938,-3.3839464187622204,-0.11291183440008028,-0.9106946575319735,-0.891173625237152,0.02796739567227139,0.09145077602240233,0.0513980116694869,0.00850824716259519,0.06642310439026936,0.06321217457762067,-4.534822046756744,-35.90172624588013,-34.63254928588867,-0.5645591720004014,-4.553473287659868,-4.45586812618576,-0.8655850291252136,-7.071092128753662,-6.87845516204834,-0.10210243847810488,-0.8259562440792088,-0.8101578966384403,-0.12368914167784767,-0.9943319752355155,-0.9701233212413889,-0.009743481927393858,-0.07711524783209626,-0.07540148486278828,0.0015238350148107653,0.01228311607901237,0.012014284941744774,-0.048717409636969286,-0.38557623916048134,-0.3770074243139414,-0.007861222861950125,-0.06193098231974906,-0.06053969708594341,-0.011715028974635932,-0.09299362434958788,-0.09092061566550441
-134.24124145507812,7.397241592407227,18.899810791015625,-0.9498274326324464,-7.21586275100708,-6.875695705413818,-0.5922779440879822,-6.456478118896484,-0.2438731342554092,0.175,-0.6469474804984701,-4.8027749243922315,-4.523301655167176,-0.1290803706820016,-1.0343550996054507,-1.0078175017011153,-0.012790698730319279,-0.10161325017963331,-0.09931909484634704,0.2876864178403809,0.21324499355675622,19.8158883625749,12.737388610839844,0.3311347961425781,-0.8099913597107067,-0.11830742084085961,-0.9523744286372219,-0.9307055462496872,0.021414539628015018,0.06816619349275263,0.03334075337725487,0.008493789484402924,0.06533261974264686,0.061667450492095155,-4.619064450263977,-36.046496868133545,-34.50717639923096,-0.5915371042042981,-4.7618721431861095,-4.6535277312484356,-0.9008364081382751,-7.151662826538086,-6.875695705413818,-0.10760570573884157,-0.8692427126784981,-0.8517921658743263,-0.1290803706820016,-1.0343550996054507,-1.0078175017011153,-0.010729377101067689,-0.08505170140407312,-0.08315736441486901,0.0015945984758452868,0.012827251126134951,0.01252780072394468,-0.05364688550533844,-0.4252585070203656,-0.41578682207434503,-0.008757937076440472,-0.06917467159206989,-0.06763796513489613,-0.012790698730319279,-0.10161325017963331,-0.09931909484634704
-134.2519073486328,7.438591003417969,18.929759979248047,-1.09978187084198,-7.271254062652588,-6.833861351013184,-0.1109608635306358,-6.992199420928955,0.4103528559207916,0.18333333333333332,-0.7822641412950744,-4.757077568223304,-4.386408263337329,-0.1355992385261272,-1.0739974126739782,-1.044370903895593,-0.013920692384703672,-0.11056322861858313,-0.10802218571214366,0.1321737966162426,0.2346020028080095,19.845427681953208,-6.6469573974609375,5.020122528076172,-17.99453258514403,-0.12390612739831675,-0.993325368636318,-0.9692212938539404,0.07976690630274058,0.07266275526070927,0.02723305607463175,0.00889284145218247,0.06436181986135983,0.06018030338016049,-4.808401167392731,-36.12167835235596,-34.38450050354004,-0.6195306369915837,-4.96662684318159,-4.846106469269702,-0.9008364081382751,-7.151662826538086,-6.833861351013184,-0.11291970242181004,-0.9113717701255276,-0.8921911965050199,-0.1355992385261272,-1.0739974126739782,-1.044370903895593,-0.011761928162720328,-0.09332941280937576,-0.09123420853031852,0.0016686885712243415,0.013363278980379202,0.013028945599350117,-0.05880964081360164,-0.46664706404687883,-0.4561710426515926,-0.009698934596622223,-0.07676943634311595,-0.07507289177243796,-0.013920692384703672,-0.11056322861858313,-0.10802218571214366
-134.25241088867188,7.482158184051514,18.96083068847656,-1.0795094966888428,-7.101928234100342,-6.86055326461792,1.0992989540100098,-7.337429046630859,0.561733067035675,0.19166666666666665,-0.7463921108854092,-4.488545641317966,-4.319037588530512,-0.14181917278350561,-1.1114019596849611,-1.080362883800014,-0.015102518824566218,-0.1198249116159578,-0.11702520974381043,0.19020585730133524,0.10959410799883049,19.74084726273407,20.31909942626953,-3.2030296325683594,2.432684898376465,-0.12968602147065586,-1.0333314065482047,-1.006855631312939,0.08551021435572036,0.0885755927369416,0.021201664672187315,0.009347062374681431,0.06283519937349749,0.058787277530900794,-4.987074255943298,-36.06271553039551,-34.33682918548584,-0.6484301073532793,-5.166657032741023,-5.034278156564696,-0.914877951145172,-7.101928234100342,-6.833861351013184,-0.11824218368379717,-0.9525705855411178,-0.9316035459265848,-0.14181917278350561,-1.1114019596849611,-1.080362883800014,-0.012842645008309127,-0.10194050786394415,-0.099624672124593,0.001746564141786074,0.013886438948505025,0.013518523230505454,-0.06421322504154564,-0.5097025393197208,-0.49812336062296503,-0.010684286127320534,-0.08470752455595859,-0.08283625465515951,-0.015102518824566218,-0.1198249116159578,-0.11702520974381043
-134.25714111328125,7.52674388885498,18.98777198791504,-1.1066086292266846,-7.010411739349365,-6.843071937561035,0.6432758569717407,-7.008092403411865,0.9386080503463744,0.2,-0.7579746837435521,-4.300931785370522,-4.20827882896899,-0.14813562848136855,-1.1472430578963821,-1.1154318740414224,-0.01633698239524429,-0.12938527043176098,-0.12632047536082228,0.1788690745609629,0.052360741802124286,19.667147313650403,10.981979370117188,2.097759246826172,-3.2518959045410156,-0.13566471043017012,-1.0722659010192577,-1.0436212969359069,0.08216872541690427,0.1270264239906819,0.01964087573490681,0.009749016198179387,0.06055396131917502,0.057426320804402506,-5.178804934024811,-35.92146444320679,-34.2916374206543,-0.6783235521508506,-5.361329505096288,-5.218106484679534,-0.9430775046348572,-7.010411739349365,-6.833861351013184,-0.12368914167784767,-0.9943319752355155,-0.9701233212413889,-0.14813562848136855,-1.1472430578963821,-1.1154318740414224,-0.013973184261893878,-0.11087605703910461,-0.10832151626572557,0.0018277876586602166,0.014390550980454194,0.013996797317231129,-0.06986592130946939,-0.5543802851955231,-0.5416075813286279,-0.011715028974635932,-0.09299362434958788,-0.09092061566550441,-0.01633698239524429,-0.12938527043176098,-0.12632047536082228
-134.26881408691406,7.570539951324463,19.010467529296875,-1.1771565675735474,-7.142430305480957,-6.817518711090088,-0.1138552650809288,-6.643641471862793,1.276908040046692,0.20833333333333334,-0.8123226993835762,-4.33739590602183,-4.090669993174159,-0.154904984309565,-1.1833880237798975,-1.149520790651207,-0.017627857264490662,-0.13924683729659346,-0.13589981528291567,0.09277866326687552,0.14171074341397707,19.752327685916477,-15.842227935791016,3.066387176513672,-8.465752601623535,-0.1419078789565136,-1.110077110728134,-1.0795007908178704,0.08284123158037414,0.1010944648459339,0.022697127165139573,0.01014964769216587,0.05872205804954899,0.05605173774370478,-5.412883996963501,-35.74188709259033,-34.230700969696045,-0.709539394782568,-5.55038555364067,-5.397503954089352,-0.9498274326324464,-7.010411739349365,-6.817518711090088,-0.1290803706820016,-1.0343550996054507,-1.0078175017011153,-0.154904984309565,-1.1833880237798975,-1.149520790651207,-0.015155749919864825,-0.12012669962850572,-0.11731735618920783,0.0019123475545831025,0.014879513281888761,0.014463634535420036,-0.07577874959932412,-0.6006334981425286,-0.5865867809460391,-0.012790698730319279,-0.10161325017963331,-0.09931909484634704,-0.017627857264490662,-0.13924683729659346,-0.13589981528291567
-134.27743530273438,7.613049507141113,19.02635955810547,-1.2369376420974731,-7.108804702758789,-6.831316947937012,0.3473674654960632,-5.894911766052246,1.676771879196167,0.21666666666666667,-0.8549509819400039,-4.208268412669594,-4.013362759605988,-0.16202957582573171,-1.2184569272188108,-1.1829654803145904,-0.018978103729705095,-0.14940064502341688,-0.14575786095220392,0.05227440163507156,0.09407218209171253,19.745815421346393,4.035072326660156,-1.6557884216308594,-7.173728942871094,-0.14849771998525962,-1.1468974762508057,-1.1145303865405654,0.06551545525385911,0.0943395567649226,0.015913389540579578,0.010431551724739462,0.05706747207094344,0.05476831741055991,-5.699994206428528,-35.63482904434204,-34.18632221221924,-0.7424885999262981,-5.734487381254029,-5.5726519327028265,-1.0795094966888428,-7.010411739349365,-6.817518711090088,-0.1355992385261272,-1.0739974126739782,-1.044370903895593,-0.16202957582573171,-1.2184569272188108,-1.1829654803145904,-0.016393230919741986,-0.12968417859726245,-0.1266051094103792,0.0019992759984069626,0.015354874709035926,0.014919785489560264,-0.08196615459870993,-0.6484208929863122,-0.633025547051896,-0.013920692384703672,-0.11056322861858313,-0.10802218571214366,-0.018978103729705095,-0.14940064502341688,-0.14575786095220392
-134.2899932861328,7.65090799331665,19.033910751342773,-1.2346817255020142,-7.056117534637451,-6.8518781661987305,0.0165083743631839,-4.8570733070373535,2.022538423538208,0.225,-0.835212100053037,-4.061692283967753,-3.943374077020911,-0.168989676659507,-1.2523043629185422,-1.2158269309564314,-0.020386351035200985,-0.15983651471440474,-0.15588975204350752,0.07373394455111111,0.04928443334661028,19.72229551518659,6.322460174560547,-2.46734619140625,0.2707099914550781,-0.15517580761193556,-1.1825588662997188,-1.1488215919527331,0.07224428905261196,0.05134062846942882,0.016955844357429146,0.01079159717307287,0.0558218242729663,0.05351980341523903,-5.834894061088562,-35.419692516326904,-34.204339027404785,-0.7758790380596778,-5.912794331498594,-5.7441079597636655,-1.0795094966888428,-7.010411739349365,-6.817518711090088,-0.14181917278350561,-1.1114019596849611,-1.080362883800014,-0.168989676659507,-1.2523043629185422,-1.2158269309564314,-0.01768636264984145,-0.13953883581642676,-0.13617862267665196,0.0020892002754348583,0.01581984521114692,0.015365582122848947,-0.08843181324920725,-0.6976941790821338,-0.6808931133832598,-0.015102518824566218,-0.1198249116159578,-0.11702520974381043,-0.020386351035200985,-0.15983651471440474,-0.15588975204350752
-134.3024444580078,7.682427883148193,19.033838272094727,-1.1931289434432983,-7.114726066589356,-6.846597194671631,0.1389059722423553,-3.615513324737549,2.057668209075928,0.23333333333333334,-0.7767043167380572,-4.0272356232972175,-3.848257506499067,-0.17546221263232414,-1.2858646597793524,-1.2478957435105902,-0.021848536140470352,-0.17055205354589933,-0.1662888832394291,0.10737147630281427,0.11045025197867896,19.75459898298006,-7.033023834228622,0.6337165832519531,4.986333847045898,-0.16190441558169927,-1.217451406318597,-1.1823281638948484,0.05321658968483907,0.05276108239785695,0.013750971355594072,0.010869705456461072,0.0547394718719457,0.052376326710721094,-5.948513507843018,-35.43249034881592,-34.190382957458496,-0.8095220779084964,-6.087257031592985,-5.911640819474242,-1.1066086292266846,-7.010411739349365,-6.817518711090088,-0.14813562848136855,-1.1472430578963821,-1.1154318740414224,-0.17546221263232414,-1.2858646597793524,-1.2478957435105902,-0.019035566113022276,-0.14968426420241507,-0.14603135737577572,0.002179720193677031,0.016275766425089936,0.015801875797052275,-0.09517783056511138,-0.7484213210120754,-0.7301567868788785,-0.01633698239524429,-0.12938527043176098,-0.12632047536082228,-0.021848536140470352,-0.17055205354589933,-0.1662888832394291
-134.3137664794922,7.704435348510742,19.03253555297852,-1.2015409469604492,-7.134281158447266,-6.854563236236572,0.3070634603500366,-2.77454686164856,1.3969491720199585,0.24166666666666667,-0.7685952935030114,-3.953935418860926,-3.767204923137692,-0.1818671734115159,-1.3188141216031934,-1.279289117870071,-0.023364095918899652,-0.18154217122592595,-0.17694962588834637,0.10234894287243272,0.11919970035592328,19.775039968805558,-2.346611022949112,-0.9559249877929688,-1.0094404220581055,-0.16865072456772875,-1.251765619059959,-1.215099612660578,0.026273141591132056,0.03376497650670617,0.015626922573163664,0.010653294843892668,0.053487150336954684,0.05130690043122933,-6.043445825576782,-35.55635976791382,-34.20187425613403,-0.8432536228386438,-6.258828095299796,-6.07549806330289,-1.1771565675735474,-7.056117534637451,-6.817518711090088,-0.154904984309565,-1.1833880237798975,-1.149520790651207,-0.1818671734115159,-1.3188141216031934,-1.279289117870071,-0.020440988817753348,-0.16011564436124806,-0.15615718748128055,0.002268395456844887,0.01672132562495774,0.01622925904194436,-0.10220494408876674,-0.8005782218062403,-0.7807859374064027,-0.017627857264490662,-0.13924683729659346,-0.13589981528291567,-0.023364095918899652,-0.18154217122592595,-0.17694962588834637
-134.3245391845703,7.719308376312256,19.031736373901367,-1.0902644395828247,-6.984851837158203,-6.825016975402832,0.3537581861019134,-2.158703565597534,0.6893815398216248,0.25,-0.6418167278679083,-3.713616506273791,-3.649657246274824,-0.18721564614374847,-1.3497609258221417,-1.3097029282556945,-0.02492422630343089,-0.19279017894111045,-0.18786381695714383,0.21938709943020493,0.0734500424693941,19.63365323297157,17.9315185546875,3.545551300048828,13.353180885314941,-0.17511285693456544,-1.285040199468408,-1.2471360401814755,0.05975193386962729,0.06042620036456129,0.013028998913626761,0.010011067979615217,0.052045886266377385,0.05011769675320347,-5.95655369758606,-35.398781299591064,-34.20937252044678,-0.8755642846728272,-6.42520099734204,-6.235680200907377,-1.0902644395828247,-6.984851837158203,-6.825016975402832,-0.16202957582573171,-1.2184569272188108,-1.1829654803145904,-0.18721564614374847,-1.3497609258221417,-1.3097029282556945,-0.021900262625541393,-0.17082431269015147,-0.16654998781612615,0.0023516367056307373,0.01715481810920784,0.01664671984610551,-0.10950131312770697,-0.8541215634507574,-0.8327499390806308,-0.018978103729705095,-0.14940064502341688,-0.14575786095220392,-0.02492422630343089,-0.19279017894111045,-0.18786381695714383
-134.33656311035156,7.730798244476318,19.02699089050293,-1.0405118465423584,-7.143632888793945,-6.869836330413818,0.2781962156295776,-1.600723147392273,0.7782117128372192,0.2583333333333333,-0.5780635605044944,-3.7822850154810945,-3.6071753005792813,-0.19203284248128594,-1.3812799676178176,-1.3397627224271884,-0.026524499990774938,-0.20430084533792559,-0.19902850631070373,0.25989401302440784,0.1730377548430951,19.770487939690504,-19.053726196289062,-5.378322601318359,5.970311164855957,-0.1811135102656763,-1.3176048075482094,-1.2784954886039952,0.08249704185018088,0.066330826051238,0.01622245684980989,0.009164611185117391,0.05089594640549401,0.048969124442805136,-5.760127902030945,-35.43360948562622,-34.247891902923584,-0.9055675513283814,-6.5880240377410475,-6.392477443019976,-1.0405118465423584,-6.984851837158203,-6.825016975402832,-0.168989676659507,-1.2523043629185422,-1.2158269309564314,-0.19203284248128594,-1.3812799676178176,-1.3397627224271884,-0.023409541877755364,-0.18180435275305323,-0.1772041168878261,0.0024277417527801535,0.01757874739812381,0.017054635874402757,-0.11704770938877682,-0.9090217637652661,-0.8860205844391306,-0.020386351035200985,-0.15983651471440474,-0.15588975204350752,-0.026524499990774938,-0.20430084533792559,-0.19902850631070373
-134.34475708007812,7.735428333282471,19.02496910095215,-1.0605448484420776,-7.040128231048584,-6.862287521362305,0.6815179586410522,-1.1967352628707886,-0.0864096209406852,0.26666666666666666,-0.584477428291422,-3.589053325214433,-3.5128361952899168,-0.1969034877170478,-1.411188745327938,-1.3690363573879378,-0.028165362388417003,-0.21606075154899174,-0.21043714262226987,0.25316476798570353,0.10138852944508016,19.69457277161521,12.42055892944336,0.9058570861816406,-2.4039602279663086,-0.18669627247718446,-1.3493816840300885,-1.3091373738902963,0.07532430428532343,0.0685243115395661,0.017228136401143426,0.008403277184394172,0.0495140015269637,0.04787372903746542,-5.585991024971008,-35.41762018203735,-34.25830125808716,-0.9334813623859223,-6.746908420150443,-6.545686869451481,-1.0405118465423584,-6.984851837158203,-6.825016975402832,-0.17546221263232414,-1.2858646597793524,-1.2478957435105902,-0.1969034877170478,-1.411188745327938,-1.3690363573879378,-0.024965344148398565,-0.19304920011997062,-0.18811359500357858,0.002497561931424361,0.017991188323703892,0.0174534431144182,-0.12482672074199283,-0.9652460005998531,-0.9405679750178929,-0.021848536140470352,-0.17055205354589933,-0.1662888832394291,-0.028165362388417003,-0.21606075154899174,-0.21043714262226987
-134.3566131591797,7.732056617736816,19.020523071289062,-1.0793637037277222,-6.966261386871338,-6.83989953994751,0.2937312126159668,-0.3790138065814972,-0.5214033722877502,0.275,-0.5894772571973352,-3.4278068139313396,-3.4047339441947146,-0.20181579819369225,-1.439753802110699,-1.3974091402562272,-0.02984716070669777,-0.22805869989991423,-0.22208221879107176,0.23723457424477706,0.06033401419457139,19.62927334354369,8.864021301269531,2.6865577697753906,-2.2582626342773438,-0.19196698958945807,-1.380159512496358,-1.3390400532394238,0.06279424686112094,0.08238770410670201,0.01796484631865469,0.007841459249674224,0.047965818871516464,0.046738881063638875,-5.472225785255432,-35.269155502319336,-34.25160360336304,-0.9598349479472903,-6.90079756248179,-6.695200266197119,-1.0405118465423584,-6.966261386871338,-6.825016975402832,-0.1818671734115159,-1.3188141216031934,-1.279289117870071,-0.20181579819369225,-1.439753802110699,-1.3974091402562272,-0.026565069061644055,-0.2045505293907736,-0.1992722621139071,0.002562874566063867,0.01839070434407959,0.017842791305071454,-0.13282534530822027,-1.022752646953868,-0.9963613105695356,-0.023364095918899652,-0.18154217122592595,-0.17694962588834637,-0.02984716070669777,-0.22805869989991423,-0.22208221879107176
-134.37237548828125,7.722583293914795,19.01105690002441,-1.2012200355529783,-7.226447105407715,-6.792125701904297,-0.1097441837191581,0.6155356168746948,-0.6804549694061279,0.2833333333333333,-0.6964577269237868,-3.5998746229030854,-3.272654459315194,-0.2076196125847238,-1.469752757301558,-1.4246812607505204,-0.0315773241449038,-0.24030663954409387,-0.23395456263065942,0.06965926315716668,0.23396425506994634,19.79688375850767,-31.222286224365234,5.732860565185547,-14.622759819030735,-0.19711747742409963,-1.410347239636031,-1.3681184818155137,0.06265743296165806,0.11042655492375125,0.031144481635781943,0.008004914549621203,0.047196602901197454,0.04548230182306148,-5.471904873847961,-35.361321449279785,-34.18916606903076,-0.9855873871204982,-7.051736198180155,-6.840592409077568,-1.0405118465423584,-6.966261386871338,-6.792125701904297,-0.18721564614374847,-1.3497609258221417,-1.3097029282556945,-0.2076196125847238,-1.469752757301558,-1.4246812607505204,-0.028207714706844876,-0.2163034230544072,-0.2106732494623697,0.002629560445498174,0.018783865054857976,0.018221622627402807,-0.1410385735342244,-1.081517115272036,-1.0533662473118486,-0.02492422630343089,-0.19279017894111045,-0.18786381695714383,-0.0315773241449038,-0.24030663954409387,-0.23395456263065942
-134.3712921142578,7.70693302154541,19.00591087341309,-1.2028886079788208,-7.109969615936279,-6.771424770355225,1.8582358360290527,0.7089763879776001,-1.5169901847839355,0.2916666666666667,-0.6823476051555455,-3.3949090733343885,-3.1690326749459974,-0.21330584262768668,-1.4980436662460113,-1.4510898663750704,-0.03335487283346786,-0.25279033676281065,-0.24604697818378501,0.07491416244910802,0.16506340327534982,19.700295460929684,13.977298736572266,2.484111785888672,-0.20022869110110086,-0.2023355167208873,-1.4400037877208047,-1.3963958694393888,0.07893658144790243,0.0992798558926073,0.04344915261497517,0.008428995529317437,0.0461857253346083,0.04401244034466713,-5.5845290422439575,-35.48643922805786,-34.135573863983154,-1.0116775836044365,-7.200018938604024,-6.981979347196944,-1.0405118465423584,-6.966261386871338,-6.771424770355225,-0.19203284248128594,-1.3812799676178176,-1.3397627224271884,-0.21330584262768668,-1.4980436662460113,-1.4510898663750704,-0.029893844012852278,-0.22830345461874718,-0.22230988170769797,0.0026997746687610884,0.01916867745244613,0.01858819885762652,-0.1494692200642614,-1.141517273093736,-1.1115494085384898,-0.026524499990774938,-0.20430084533792559,-0.19902850631070373,-0.03335487283346786,-0.25279033676281065,-0.24604697818378501
-134.3714599609375,7.690242290496826,19.00453758239746,-1.0713475942611694,-6.927992343902588,-6.809648990631104,1.6354562044143677,0.5330193638801575,-1.970272660255432,0.3,-0.5362708290527649,-3.1278093027197045,-3.1249859027975226,-0.21777476620312639,-1.5241087437686756,-1.4771314155650497,-0.03516966255182724,-0.26549124296088294,-0.2583564066468271,0.232699216903874,0.05594131558285221,19.580307293231286,21.83727264404297,-4.586906433105575,15.784921646118164,-0.20748390146525536,-1.4685695429509764,-1.423869608066961,0.07241077329971936,0.11899463653389997,0.03642366792083343,0.008424486085813726,0.04493781710239032,0.04267687640044055,-5.6153647899627686,-35.270798683166504,-34.07538652420044,-1.0374195073262769,-7.342847714754882,-7.119348040334805,-1.0605448484420776,-6.927992343902588,-6.771424770355225,-0.1969034877170478,-1.411188745327938,-1.3690363573879378,-0.21777476620312639,-1.5241087437686756,-1.4771314155650497,-0.03162287652506274,-0.2405415341433387,-0.23417546177492263,0.0027698893490542102,0.019542941042383057,0.01894369364218315,-0.1581143826253137,-1.2027076707166935,-1.1708773088746132,-0.028165362388417003,-0.21606075154899174,-0.21043714262226987,-0.03516966255182724,-0.26549124296088294,-0.2583564066468271
-134.37509155273438,7.669429779052734,19.004165649414062,-1.1156712770462036,-6.892792701721191,-6.835999488830566,1.2147166728973389,0.7377540469169617,-2.35571551322937,0.30833333333333335,-0.5669317418384345,-3.0101409592641053,-3.0693150796299866,-0.22249919738511334,-1.549193251762543,-1.5027090412286328,-0.03702382253003652,-0.2784011867255708,-0.270878981990399,0.20091077623126782,-0.00031387820255174937,19.579638550125242,4.223957061767578,-3.1620597839354403,-5.318841934204102,-0.2126030433988685,-1.4961704442378974,-1.4506041448351001,0.06424662662389259,0.13976746694264655,0.029057939737735614,0.00816048021006633,0.043232532169467194,0.0415949416317179,-5.6704912185668945,-35.12346315383911,-34.0490984916687,-1.0630152169943425,-7.480852221189487,-7.253020724175501,-1.0713475942611694,-6.892792701721191,-6.771424770355225,-0.20181579819369225,-1.439753802110699,-1.3974091402562272,-0.22249919738511334,-1.549193251762543,-1.5027090412286328,-0.03339456855338664,-0.2530096211786545,-0.24626382964854848,0.002837714685773606,0.01990279367299238,0.019290227616656674,-0.1669728427669332,-1.2650481058932725,-1.2313191482427424,-0.02984716070669777,-0.22805869989991423,-0.22208221879107176,-0.03702382253003652,-0.2784011867255708,-0.270878981990399
-134.37989807128906,7.653976440429687,18.99009895324707,-1.0135945081710815,-6.747626304626465,-6.877192497253418,1.277753233909607,1.5066677331924438,-0.8073606491088867,0.31666666666666665,-0.4518096340633053,-2.7848289589587987,-3.0287115082087226,-0.22626427766897422,-1.5724001597538664,-1.5279483037970387,-0.03890935817727797,-0.29150452139018634,-0.283611884522041,0.32699687200816246,-0.09462247406803447,19.491824768671368,17.419967651367188,-4.9431610107421875,12.249212265014648,-0.21749273929392485,-1.522699715766531,-1.4767119775432624,0.08241765454921113,0.18836869315440222,0.0410292568694745,0.007367034375700179,0.040575017346495226,0.04081933502392092,-5.604722023010254,-34.90482807159424,-34.08639144897461,-1.0874636964696243,-7.613498578832655,-7.383559887716312,-1.0135945081710815,-6.747626304626465,-6.771424770355225,-0.2076196125847238,-1.469752757301558,-1.4246812607505204,-0.22626427766897422,-1.5724001597538664,-1.5279483037970387,-0.03520700804750267,-0.26569878547670894,-0.2585697627947423,0.0028989056606456066,0.020240548415752162,0.01963032394146683,-0.17603504023751337,-1.3284939273835448,-1.2928488139737115,-0.0315773241449038,-0.24030663954409387,-0.23395456263065942,-0.03890935817727797,-0.29150452139018634,-0.283611884522041
-134.38827514648438,7.639791965484619,18.96823501586914,-0.9940427541732788,-6.702117919921875,-6.8508782386779785,0.9905152320861816,2.00788688659668,-0.0009989551035687,0.325,-0.42036398515182194,-2.6615676074160666,-2.921270022561546,-0.22976731087857274,-1.594579889815667,-1.5522922206517182,-0.04082408576793274,-0.3047926871386502,-0.296547653027472,0.3403978504388132,-0.10241701474627113,19.43884615669816,5.461006164550781,3.1577110290527344,2.346210479736328,-0.22192227895269467,-1.5476651422693526,-1.502234169523502,0.0840327999928785,0.16158721599776574,0.04043368474714216,0.006560776451736206,0.03818489406485629,0.040041037349717944,-5.397544741630554,-34.3804988861084,-34.14514398574829,-1.1096113947634734,-7.7383257113467625,-7.511170847617509,-0.9940427541732788,-6.702117919921875,-6.771424770355225,-0.21330584262768668,-1.4980436662460113,-1.4510898663750704,-0.22976731087857274,-1.594579889815667,-1.5522922206517182,-0.037056360372108466,-0.27859599499562016,-0.2710883808741048,0.0029534324479846682,0.020558460581342624,0.01996391461183393,-0.18528180186054233,-1.3929799749781009,-1.3554419043705241,-0.03335487283346786,-0.25279033676281065,-0.24604697818378501,-0.04082408576793274,-0.3047926871386502,-0.296547653027472
-134.4123992919922,7.629515171051025,18.93889617919922,-1.11005699634552,-6.830840587615967,-6.685780048370361,-0.7978450059890747,2.368446111679077,0.9087674617767334,0.3333333333333333,-0.5237865183773218,-2.712601271529267,-2.6774508274614197,-0.2341321985317171,-1.6171849004117442,-1.5746043108805634,-0.04277518742236372,-0.31826922797541474,-0.30966935561814335,0.15817506286559305,0.059085878552261925,19.431005874241407,-15.446720123291016,19.811782836914062,-13.921709060668945,-0.22608755013350076,-1.5714933891024991,-1.5269370584246007,0.055301779122969616,0.09514778424745259,0.07462323346661631,0.006329828033478369,0.03662008906567554,0.03867710144054303,-5.304713129997253,-34.101369857788086,-34.05949926376343,-1.1304377506675038,-7.8574669455124955,-7.634685292123003,-0.9940427541732788,-6.702117919921875,-6.685780048370361,-0.21777476620312639,-1.5241087437686756,-1.4771314155650497,-0.2341321985317171,-1.6171849004117442,-1.5746043108805634,-0.038940423289887637,-0.291691773238141,-0.2838128563609765,0.003006100478215154,0.020863470380383504,0.020286016907809755,-0.1947021164494382,-1.458458866190705,-1.4190642818048824,-0.03516966255182724,-0.26549124296088294,-0.2583564066468271,-0.04277518742236372,-0.31826922797541474,-0.30966935561814335
-134.4377899169922,7.625821113586426,18.905946731567383,-1.2424134016036987,-7.050286769866943,-6.563713073730469,-0.8762374520301819,2.0679781436920166,1.8236953020095823,0.3416666666666667,-0.6415780961959685,-2.852188756385046,-2.479858692335897,-0.2394786826666835,-1.6409531400482862,-1.5952697999833625,-0.04477084311125275,-0.3319438374758171,-0.3229632706180047,-0.0369401371828847,0.25116553742323694,19.519171705721426,-26.333541870117188,14.64803695678711,-15.882768630981445,-0.2304283334262122,-1.5948622683584213,-1.5505647353082632,0.09899977783080195,0.13649529086185166,0.13394889300478902,0.006638428797735129,0.03610039297695136,0.036677986030648355,-5.475778937339783,-34.22366428375244,-33.81356334686279,-1.152141667131061,-7.974311341792107,-7.752823676541316,-0.9940427541732788,-6.702117919921875,-6.563713073730469,-0.22249919738511334,-1.549193251762543,-1.5027090412286328,-0.2394786826666835,-1.6409531400482862,-1.5952697999833625,-0.040860659401772734,-0.3049822921411279,-0.29673422915521197,0.0030612573178039454,0.021164291922267337,0.020591288558184144,-0.20430329700886368,-1.5249114607056393,-1.4836711457760599,-0.03702382253003652,-0.2784011867255708,-0.270878981990399,-0.04477084311125275,-0.3319438374758171,-0.3229632706180047
-134.4539337158203,7.630927562713623,18.876502990722656,-1.2513972520828247,-7.048498630523682,-6.540457725524902,0.1659418195486068,1.0854417085647583,2.243614912033081,0.35,-0.6349439743902847,-2.769493708219329,-2.383052489196457,-0.24476988245326922,-1.6640322542834474,-1.6151285707266663,-0.04681059213169666,-0.3458107729281792,-0.3364226753740603,-0.05247657086272058,0.26491562184097134,19.502883018442354,0.21457672119140625,2.7906417846679688,-1.0780620574951172,-0.23488247043984334,-1.6178300688626024,-1.5730486412078697,0.12197338432484792,0.16498919079728896,0.15678531431205822,0.007414295230610729,0.03631178206999689,0.034394003484027984,-5.611504912376404,-34.37937021255493,-33.51802158355713,-1.1744123521992167,-8.089150344313012,-7.865243206039349,-0.9940427541732788,-6.702117919921875,-6.540457725524902,-0.22626427766897422,-1.5724001597538664,-1.5279483037970387,-0.24476988245326922,-1.6640322542834474,-1.6151285707266663,-0.04281801332210477,-0.31846420938164954,-0.30984296783194426,0.0031228751146316403,0.021466882785747522,0.02087755054349157,-0.21409006661052385,-1.5923210469082476,-1.5492148391597214,-0.03890935817727797,-0.29150452139018634,-0.283611884522041,-0.04681059213169666,-0.3458107729281792,-0.3364226753740603
-134.4601287841797,7.64176082611084,18.84979820251465,-1.2393779754638672,-7.039387226104736,-6.5900187492370605,1.3287513256072998,0.3156058192253113,2.549551486968994,0.35833333333333334,-0.6074808753112109,-2.680366377853331,-2.3595744006384125,-0.24983222308086264,-1.6863686407655585,-1.6347916907319864,-0.04889252732403718,-0.35986384493455886,-0.3500459394634935,-0.022643658651742928,0.23205933106752133,19.52920846221516,1.0933685302734375,-5.947322845458984,1.4423131942749023,-0.23959605952222102,-1.6406237650649405,-1.5944173185948594,0.11314185327021752,0.1598045088505588,0.1270842353916934,0.008031490245758865,0.03643514214478272,0.0325071213976944,-5.8372883796691895,-34.6711311340332,-33.23084783554077,-1.1979802976111051,-8.203118825324703,-7.972086592974296,-0.9940427541732788,-6.702117919921875,-6.540457725524902,-0.22976731087857274,-1.594579889815667,-1.5522922206517182,-0.24983222308086264,-1.6863686407655585,-1.6347916907319864,-0.04481464715145661,-0.33213607409052404,-0.32312977882023475,0.0031897804784292443,0.021770472263917068,0.021148291491202436,-0.22407323575728305,-1.66068037045262,-1.6156488941011737,-0.04082408576793274,-0.3047926871386502,-0.296547653027472,-0.04889252732403718,-0.35986384493455886,-0.3500459394634935
-134.4648895263672,7.65939474105835,18.822229385375977,-1.2232590913772583,-7.006372451782227,-6.610665798187256,1.50016188621521,-0.1298897862434387,3.157991886138916,0.36666666666666664,-0.5763030404014227,-2.5684847403310416,-2.307321363452961,-0.2546347484175412,-1.707772680268317,-1.654019368760761,-0.05101448356085002,-0.37409528393679486,-0.3638294342031665,0.006226670090790145,0.20271878607529378,19.518006301780222,3.961772918701172,-2.4776458740234375,1.9342660903930664,-0.24456954703001474,-1.6632623231554706,-1.614762748216668,0.05860322703082226,0.0934967537105918,0.055713745204325545,0.008122489090638833,0.035834672927802166,0.031364987410476206,-6.066504716873169,-34.975385665893555,-32.99063539505005,-1.2228477351500737,-8.316311615777353,-8.07381374108334,-1.11005699634552,-6.830840587615967,-6.540457725524902,-0.2341321985317171,-1.6171849004117442,-1.5746043108805634,-0.2546347484175412,-1.707772680268317,-1.654019368760761,-0.046852726710040066,-0.34599659345015293,-0.33658613505537366,0.003257427969820005,0.022068973394259766,0.021409611468799446,-0.23426363355020033,-1.7299829672507647,-1.6829306752768682,-0.04277518742236372,-0.31826922797541474,-0.30966935561814335,-0.05101448356085002,-0.37409528393679486,-0.3638294342031665
-134.4690399169922,7.6845502853393555,18.7932186126709,-1.2224887609481812,-7.047777652740479,-6.630982398986816,1.6104694604873655,-0.6943891048431396,3.967235565185547,0.375,-0.560760893046395,-2.531738406199933,-2.255124410799767,-0.2593077558595945,-1.7288705003199831,-1.6728120721840924,-0.05317538152634664,-0.38850253810612806,-0.3777695348047006,0.011729284089583446,0.22061388304404864,19.561244439931176,-4.968624114990341,-2.4379920959472656,0.09243965148925781,-0.24960465849559021,-1.6855994431371184,-1.6344043004773738,0.012592417648977115,0.018425089120584017,0.03609694639532995,0.007832849650442154,0.034724143308884084,0.03067214040780447,-6.17893648147583,-35.192322731018066,-32.935837745666504,-1.248023292477951,-8.427997215685592,-8.172021502386869,-1.2224887609481812,-7.006372451782227,-6.540457725524902,-0.2394786826666835,-1.6409531400482862,-1.5952697999833625,-0.2593077558595945,-1.7288705003199831,-1.6728120721840924,-0.048932765530836655,-0.3600432554762956,-0.3502061708926851,0.0033226562310062677,0.022358238477404164,0.021665170040712316,-0.24466382765418326,-1.800216277381478,-1.7510308544634254,-0.04477084311125275,-0.3319438374758171,-0.3229632706180047,-0.05317538152634664,-0.38850253810612806,-0.3777695348047006
-134.46682739257812,7.715057373046875,18.76826286315918,-1.2215073108673096,-7.093601703643799,-6.635695934295654,2.299659013748169,-1.4332189559936523,4.046498775482178,0.3833333333333333,-0.545165034563641,-2.4994572212160557,-2.187844038408377,-0.2638507978142915,-1.7496993104967835,-1.6910441058374956,-0.05537413817479907,-0.40308336569360126,-0.39186156902001307,0.013114384466616771,0.2510016801735225,19.5967539022057,-5.498886108398331,-0.5656242370605469,0.11777400970458984,-0.2544790815251118,-1.7073486772268178,-1.6535591616482002,0.013293567196857656,0.031157022069772635,0.03866698676934752,0.007533777841035666,0.03381352988349429,0.030021391035113577,-6.158030390739441,-35.23563766479492,-33.00782060623169,-1.272395407625559,-8.53674338613409,-8.267795808241,-1.2215073108673096,-7.006372451782227,-6.540457725524902,-0.24476988245326922,-1.6640322542834474,-1.6151285707266663,-0.2638507978142915,-1.7496993104967835,-1.6910441058374956,-0.05105342454354591,-0.3742711611198525,-0.3639858305730868,0.003385405728587277,0.022639956999695933,0.02191529057988679,-0.25526712271772956,-1.8713558055992623,-1.819929152865434,-0.04681059213169666,-0.3458107729281792,-0.3364226753740603,-0.05537413817479907,-0.40308336569360126,-0.39186156902001307
-134.46554565429688,7.746618747711182,18.74834442138672,-1.2232725620269775,-7.087407112121582,-6.676007270812988,2.1200644969940186,-2.004096031188965,3.759683132171631,0.39166666666666666,-0.5324509625631477,-2.4156069713569837,-2.1565099888470494,-0.2682878891689844,-1.769829368591425,-1.709015022411221,-0.057609870584540604,-0.41783194376519645,-0.4061033608734399,0.030402090898895257,0.2216424781283735,19.62054324380998,0.7433509826660156,-4.837360382080078,-0.21183013916015625,-0.25918268286825485,-1.7285081000884133,-1.6723364519851114,0.007523845465195162,0.03605839256663564,0.032068670603332634,0.007294287631171422,0.033023997450109054,0.029328504441663832,-6.129905700683594,-35.27454614639282,-33.143370151519775,-1.2959134143412743,-8.642540500442067,-8.361682259925557,-1.2215073108673096,-7.006372451782227,-6.5900187492370605,-0.24983222308086264,-1.6863686407655585,-1.6347916907319864,-0.2682878891689844,-1.769829368591425,-1.709015022411221,-0.0532132802341147,-0.38867539528725586,-0.3779219676729627,0.00344617043185732,0.022915109047850497,0.02215964289280375,-0.2660664011705735,-1.9433769764362794,-1.8896098383648134,-0.04889252732403718,-0.35986384493455886,-0.3500459394634935,-0.057609870584540604,-0.41783194376519645,-0.4061033608734399
-134.46920776367188,7.77547550201416,18.729093551635746,-1.221674561500549,-7.150615215301514,-6.685518264770508,1.499969482421875,-1.7797666788101196,3.4264674186706543,0.4,-0.516513177433247,-2.401460637849018,-2.094682635073738,-0.27259216564759475,-1.7898415405735002,-1.7264707110368356,-0.059881471964937226,-0.4327472899366423,-0.4204906167987469,0.03104877961693789,0.26207112845485564,19.67155646219266,-7.584972381591797,-1.1413192749023438,0.19176006317141336,-0.2637346713816013,-1.7492026800500018,-1.690672256046081,0.0008399779628075027,0.053956465692035785,0.0317277610357372,0.007099413025571724,0.03243095096170336,0.028638021247340127,-6.112202286720276,-35.3857741355896,-33.23886966705322,-1.3186733569080065,-8.746013400250009,-8.453361280230405,-1.2215073108673096,-7.006372451782227,-6.610665798187256,-0.2546347484175412,-1.707772680268317,-1.654019368760761,-0.27259216564759475,-1.7898415405735002,-1.7264707110368356,-0.05541106916229471,-0.40325208428767256,-0.3920109031400134,0.003505312288746324,0.023185318867150504,0.022398245016249377,-0.27705534581147356,-2.016260421438363,-1.960054515700067,-0.05101448356085002,-0.37409528393679486,-0.3638294342031665,-0.059881471964937226,-0.4327472899366423,-0.4204906167987469
-134.4765167236328,7.798540115356445,18.711204528808597,-1.2248077392578125,-7.195857048034668,-6.754786014556885,1.060813546180725,-1.4619965553283691,2.8638508319854736,0.4083333333333333,-0.5054337794132242,-2.36921486821048,-2.0926741222071765,-0.27680411380937164,-1.8095849978085876,-1.7439096620552288,-0.062188172913348654,-0.44782716491838054,-0.4350231973158738,0.04761899575682926,0.2502468689330347,19.751969407123603,-5.429019927978516,-8.312129974365234,-0.3759813308716087,-0.26816854445996735,-1.7695651435580557,-1.7086503147049747,0.0013487449572940765,0.05819018583257546,0.04986744363703088,0.006915783330113632,0.03187277888938312,0.028085936562502987,-6.11375093460083,-35.57525873184204,-33.38298988342285,-1.3408427222998367,-8.847825717790279,-8.543251573524874,-1.2215073108673096,-7.047777652740479,-6.630982398986816,-0.2593077558595945,-1.7288705003199831,-1.6728120721840924,-0.27680411380937164,-1.8095849978085876,-1.7439096620552288,-0.05764580703279444,-0.41799846048398975,-0.4062496557625549,0.003562925782241133,0.023450889086569816,0.02263226345747586,-0.2882290351639722,-2.0899923024199487,-2.0312482788127744,-0.05317538152634664,-0.38850253810612806,-0.3777695348047006,-0.062188172913348654,-0.44782716491838054,-0.4350231973158738
-134.4853057861328,7.814780712127685,18.69413185119629,-1.1490147113800049,-7.166065216064453,-6.821697235107422,0.8513532280921936,-0.907461166381836,2.164390087127685,0.4166666666666667,-0.4161806218231776,-2.2625900465836954,-2.087888317046847,-0.28027228565789813,-1.8284399148634518,-1.7613087313639526,-0.06452377529383113,-0.4630641642089093,-0.4497007700772401,0.1462938079401643,0.21275984982126908,19.766987999560467,3.5750198364257812,-8.029346466064453,9.095163345336914,-0.27236145041962806,-1.7894790264667495,-1.7263496465409467,0.03303195903002418,0.046964273119212585,0.07356227270556137,0.0065459321473245674,0.031188408030905394,0.027737505345729246,-6.040276885032654,-35.693546295166016,-33.57370471954346,-1.3618072520981404,-8.947395132333748,-8.631748232704734,-1.1490147113800049,-7.087407112121582,-6.635695934295654,-0.2638507978142915,-1.7496993104967835,-1.6910441058374956,-0.28027228565789813,-1.8284399148634518,-1.7613087313639526,-0.059915485786291335,-0.432910785704546,-0.42063590281706276,0.0036173987715548903,0.023710745421040562,0.022863392796572936,-0.29957742893145667,-2.16455392852273,-2.103179514085314,-0.05537413817479907,-0.40308336569360126,-0.39186156902001307,-0.06452377529383113,-0.4630641642089093,-0.4497007700772401
-134.49984741210938,7.825765132904053,18.678688049316406,-1.1388390064239502,-7.227008819580078,-6.787194728851318,0.1523150652647018,-0.6551864743232727,1.6251335144042969,0.425,-0.3934035254820849,-2.247219353919525,-1.9821489292570096,-0.28355064837024885,-1.8471667428127811,-1.777826639107761,-0.0668866973635832,-0.4784572203990158,-0.46451599206980476,0.13782636182983493,0.2835567950496654,19.784628939772848,-7.313232421875,4.140300750732422,1.2210845947265625,-0.2763014205308195,-1.8089725129299492,-1.7437061531949998,0.04361072972780642,0.05250047838243916,0.06335750216006972,0.006052830563743568,0.030562779340741385,0.027270106134819488,-5.957608580589294,-35.826953411102295,-33.72520351409912,-1.3815071026540977,-9.044862564649746,-8.718530765974998,-1.1388390064239502,-7.087407112121582,-6.676007270812988,-0.2682878891689844,-1.769829368591425,-1.709015022411221,-0.28355064837024885,-1.8471667428127811,-1.777826639107761,-0.06221799762404816,-0.4479855566456289,-0.4351667874270211,0.003667711970755654,0.023965375690375077,0.023090614058024105,-0.3110899881202408,-2.2399277832281443,-2.1758339371351054,-0.057609870584540604,-0.41783194376519645,-0.4061033608734399,-0.0668866973635832,-0.4784572203990158,-0.46451599206980476
-134.51031494140625,7.831506252288818,18.670001983642575,-1.1463077068328855,-7.324146270751953,-6.761554718017578,0.5141544938087463,-0.734116792678833,0.5698398351669312,0.43333333333333335,-0.3884202527274705,-2.2674880734451213,-1.8865109968249776,-0.2867874838096444,-1.866062476758157,-1.7935475640813026,-0.0692765930619969,-0.49400774103866707,-0.47946222177048226,0.1101912115546256,0.36727449659134154,19.836401622711392,-11.656494140625,3.076801300048828,-0.896244049072239,-0.28000133945895156,-1.8282191345632957,-1.760612661529016,0.04318291219404561,0.06880772987163442,0.05024966949771352,0.005564190623087308,0.030046838119164365,0.02658089689164217,-5.880643725395203,-36.063692569732666,-33.81075096130371,-1.4000066972947578,-9.141095672816478,-8.80306330764508,-1.1388390064239502,-7.150615215301514,-6.685518264770508,-0.27259216564759475,-1.7898415405735002,-1.7264707110368356,-0.2867874838096444,-1.866062476758157,-1.7935475640813026,-0.06455134211953942,-0.46322071610032295,-0.44983855960642954,0.0037139903228498926,0.02421573660059364,0.023312035928488913,-0.3227567105976971,-2.316103580501615,-2.2491927980321478,-0.059881471964937226,-0.4327472899366423,-0.4204906167987469,-0.0692765930619969,-0.49400774103866707,-0.47946222177048226
-134.51678466796875,7.832931041717529,18.667160034179688,-1.1787956953048706,-7.274734497070312,-6.792189598083496,0.9170792698860168,-0.9202682375907898,-0.2423106431961059,0.44166666666666665,-0.40824484031901065,-2.141590859240022,-1.8478288280751256,-0.29018952414563615,-1.883909067251824,-1.8089461376485954,-0.07169483909654387,-0.5097069832657656,-0.4945367729175539,0.09589334167907826,0.3039957924865019,19.827162864584956,5.929412841796982,-3.6761856079101562,-3.8985586166382102,-0.2835208111585598,-1.8470326398989603,-1.777107746851368,0.035440187002167785,0.06293070241928082,0.026712712608789668,0.005263333415754561,0.02945351800366551,0.025671916804601333,-5.837764859199524,-36.187811851501465,-33.9174222946167,-1.4176040557927991,-9.235163199494801,-8.88553873425684,-1.1388390064239502,-7.166065216064453,-6.754786014556885,-0.27680411380937164,-1.8095849978085876,-1.7439096620552288,-0.29018952414563615,-1.883909067251824,-1.8089461376485954,-0.06691401554586075,-0.47861265476614767,-0.4646477908301909,0.0037578461143084755,0.024461153130005832,0.023525868504128845,-0.33457007772930375,-2.3930632738307382,-2.3232389541509546,-0.062188172913348654,-0.44782716491838054,-0.4350231973158738,-0.07169483909654387,-0.5097069832657656,-0.4945367729175539
-134.5246124267578,7.830421924591064,18.66786766052246,-1.1403706073760986,-7.25620174407959,-6.814620971679688,0.6723608374595642,-0.8384050726890564,-0.918859362602234,0.45,-0.3573342190676825,-2.0479305980479543,-1.801214599678735,-0.2931673093045335,-1.9009751555688903,-1.8239562593125849,-0.07413790000741498,-0.5255484428955063,-0.5097364084118254,0.1407017467017488,0.2899741810542778,19.824393933404288,2.223930358886612,-2.6917648315430753,4.611010551452637,-0.28679345025759223,-1.8653106714510208,-1.7931170663028393,0.0162701729913739,0.05856809948553521,0.02389619927139753,0.005128371681603758,0.028753590222572508,0.024735440105698097,-5.75332772731781,-36.24815654754639,-33.9772572517395,-1.433967251287961,-9.326553357255104,-8.965585331514196,-1.1388390064239502,-7.166065216064453,-6.761554718017578,-0.28027228565789813,-1.8284399148634518,-1.7613087313639526,-0.2931673093045335,-1.9009751555688903,-1.8239562593125849,-0.06930396096467402,-0.4941569103615728,-0.4795904330493813,0.0038005707557344824,0.024700680465707333,0.023731940858129158,-0.3465198048233701,-2.470784551807864,-2.3979521652469065,-0.06452377529383113,-0.4630641642089093,-0.4497007700772401,-0.07413790000741498,-0.5255484428955063,-0.5097364084118254
-134.53359985351562,7.824524879455566,18.66837501525879,-1.1316516399383545,-7.1740593910217285,-6.813483238220215,0.5617329478263855,-0.5883077383041382,-1.1493107080459597,0.4583333333333333,-0.33665405271809723,-1.8922853518715543,-1.7315703130262383,-0.29597275974385095,-1.9167442001678199,-1.8383860119211368,-0.07660433967194707,-0.5415213112302382,-0.5250562918445015,0.15792699446887026,0.2374919515637753,19.764394710626586,9.85708236694336,0.13652801513682533,1.0462760925292969,-0.28993354507478275,-1.8829715285118944,-1.808532522414276,0.018421334213687066,0.05575825192964787,0.021834167981227018,0.00494049445962108,0.027538616645764562,0.023961916759099627,-5.73596465587616,-36.25615072250366,-33.969043254852295,-1.4496677253739136,-9.414857642559472,-9.04266261207138,-1.1316516399383545,-7.1740593910217285,-6.761554718017578,-0.28355064837024885,-1.8471667428127811,-1.777826639107761,-0.29597275974385095,-1.9167442001678199,-1.8383860119211368,-0.07172007384029719,-0.5098483397658387,-0.4946615374028336,0.003841702075919294,0.02492998838981009,0.023931576937183553,-0.35860036920148597,-2.549241698829193,-2.473307687014168,-0.0668866973635832,-0.4784572203990158,-0.46451599206980476,-0.07660433967194707,-0.5415213112302382,-0.5250562918445015
-134.54330444335938,7.815963268280029,18.668310165405277,-1.1225457191467283,-7.194572448730469,-6.842659950256348,0.458840548992157,-0.2644925713539123,-1.3696954250335691,0.4666666666666667,-0.31585982219461606,-1.8405789967054966,-1.6927199028612296,-0.2986049249288061,-1.932082358473699,-1.852492011111647,-0.07909271404635379,-0.5576219975508523,-0.5404937252704319,0.1710954519298101,0.2369476947705879,19.79792065160313,-2.461566925048828,-3.5012054443359375,1.0927104949951438,-0.2929444003864942,-1.899954651644078,-1.8234655968150535,0.021459176223807743,0.06092809063007283,0.03014278887540682,0.004657229640942567,0.02608284978205468,0.023298581720167383,-5.719671368598937,-36.22371435165405,-34.024508476257324,-1.4647220019324712,-9.49977325822039,-9.117327984075267,-1.1225457191467283,-7.1740593910217285,-6.761554718017578,-0.2867874838096444,-1.866062476758157,-1.7935475640813026,-0.2986049249288061,-1.932082358473699,-1.852492011111647,-0.07416127717685132,-0.525681295196206,-0.5098570840429589,0.003880451847104465,0.02514719119117356,0.024125680568873837,-0.37080638588425663,-2.6284064759810297,-2.5492854202147948,-0.0692765930619969,-0.49400774103866707,-0.47946222177048226,-0.07909271404635379,-0.5576219975508523,-0.5404937252704319
-134.5507354736328,7.805362701416016,18.671709060668945,-1.0697726011276243,-7.222278118133545,-6.810835838317871,0.6971426606178284,-0.4366330802440643,-1.791216492652893,0.475,-0.25204094632018204,-1.7964131364192921,-1.5936047532404647,-0.3007052661481409,-1.9470524679438599,-1.8657720507219842,-0.08159859126425496,-0.5738474347837178,-0.5560418256931151,0.20463280869398365,0.29411019139565153,19.788217479050672,-3.3246803283691406,3.8188934326171875,6.3327741622924805,-0.29572795685419356,-1.9161526498812187,-1.8379104941431894,0.039258059658748574,0.04175305348286596,0.018061552672434537,0.004193495985021288,0.024894322938529095,0.02248759494757456,-5.643136262893677,-36.121846199035645,-34.07378959655762,-1.4786397842709678,-9.580763249406093,-9.189552470715947,-1.0697726011276243,-7.1740593910217285,-6.792189598083496,-0.29018952414563615,-1.883909067251824,-1.8089461376485954,-0.3007052661481409,-1.9470524679438599,-1.8657720507219842,-0.07662567681730294,-0.541649233945216,-0.5251730048274855,0.003915316083800817,0.025354548554224792,0.02431300790207129,-0.3831283840865147,-2.7082461697260802,-2.6258650241374277,-0.07169483909654387,-0.5097069832657656,-0.4945367729175539,-0.08159859126425496,-0.5738474347837178,-0.5560418256931151
-134.5537567138672,7.7949371337890625,18.68111038208008,-1.055387020111084,-7.272782802581787,-6.802148818969727,1.1122084856033323,-0.9111238718032836,-2.318267583847046,0.48333333333333334,-0.22729157515003195,-1.7751401465536878,-1.518677797605708,-0.3025993626077245,-1.9618453024984739,-1.878427699035365,-0.08412025261931934,-0.5901961456378717,-0.5716953898517432,0.20670622373735884,0.3393517104616048,19.815925892431675,-6.0605621337890625,1.0424423217773438,1.7262697219848366,-0.2982099245466112,-1.9317398969305486,-1.8518068064205433,0.03862026597659678,0.04116953363728494,0.015286446709442065,0.003744422396611292,0.024043022833087842,0.021563511870081518,-5.51972758769989,-36.11989450454712,-34.08374881744385,-1.491049622733056,-9.658699484652743,-9.259034032102717,-1.055387020111084,-7.1740593910217285,-6.802148818969727,-0.2931673093045335,-1.9009751555688903,-1.8239562593125849,-0.3025993626077245,-1.9618453024984739,-1.878427699035365,-0.07911075952185802,-0.5577470664196372,-0.5406047282143234,0.003946394738416087,0.025554875924699568,0.024492614102273214,-0.3955537976092901,-2.7887353320981862,-2.703023641071617,-0.07413790000741498,-0.5255484428955063,-0.5097364084118254,-0.08412025261931934,-0.5901961456378717,-0.5716953898517432
-134.55194091796875,7.784144878387451,18.693737030029297,-1.079847812652588,-7.139358997344971,-6.860657691955566,1.6576125621795654,-1.201512575149536,-2.577458143234253,0.49166666666666664,-0.2414135061371423,-1.5713929756966376,-1.5112286679312588,-0.30461114182553406,-1.9749402439626125,-1.8910212712681256,-0.08665867880119879,-0.6066539810042268,-0.5874539004456443,0.2184236993411102,0.20022058483332283,19.765769430969435,16.01085662841797,-7.021064758300781,-2.9352951049804688,-0.3004986910508113,-1.9465329146092931,-1.8652198088116516,0.033494067577160946,0.050426909889552854,0.024668807819438157,0.0033703912961103163,0.023118724014488883,0.02075161614209132,-5.459204792976379,-36.0030517578125,-34.12978553771973,-1.5024934552540565,-9.732664573046465,-9.326099044058259,-1.055387020111084,-7.139358997344971,-6.802148818969727,-0.29597275974385095,-1.9167442001678199,-1.8383860119211368,-0.30461114182553406,-1.9749402439626125,-1.8910212712681256,-0.08161491528061479,-0.5739681740413813,-0.5561482266210872,0.003974415023059271,0.025747427099914958,0.024665475061190437,-0.408074576403074,-2.869840870206907,-2.780741133105436,-0.07660433967194707,-0.5415213112302382,-0.5250562918445015,-0.08665867880119879,-0.6066539810042268,-0.5874539004456443
-134.55316162109375,7.7704033851623535,18.706296920776367,-0.9941943287849426,-7.038144111633301,-6.905395984649658,1.2734373807907104,-0.9005836248397827,-2.8643503189086914,0.5,-0.14604738798201444,-1.4025785841828808,-1.4898395654745622,-0.30582820339205086,-1.986628398830803,-1.9034366009804136,-0.08920724716279921,-0.6232092176611502,-0.6033158721204811,0.32421561031400736,0.12769939069384895,19.713886394136768,12.14578628540039,-5.368595123291016,10.278418064117432,-0.3024697797804513,-1.9605097543418897,-1.8782299266235072,0.04652548156081913,0.08967611992733071,0.04153175744415329,0.002912552302325217,0.02168767912064809,0.020103936248605347,-5.3217474818229675,-35.86713647842407,-34.22169828414917,-1.5123488989022564,-9.802548771709448,-9.391149633117536,-0.9941943287849426,-7.038144111633301,-6.802148818969727,-0.2986049249288061,-1.932082358473699,-1.852492011111647,-0.30582820339205086,-1.986628398830803,-1.9034366009804136,-0.08413549677878521,-0.5903057553275638,-0.5718001426762831,0.003998589724407219,0.025927874325363982,0.024832985285640607,-0.42067748389392606,-2.951528776637819,-2.8590007133814157,-0.07909271404635379,-0.5576219975508523,-0.5404937252704319,-0.08920724716279921,-0.6232092176611502,-0.6033158721204811
-134.56002807617188,7.75230598449707,18.71784400939941,-0.929717183113098,-6.968555927276611,-6.94287109375,0.6338242292404175,-0.4954689145088196,-3.1133203506469727,0.5083333333333333,-0.07322911248715824,-1.2675550455691944,-1.461198525726883,-0.30643844599611053,-1.9971913575438798,-1.9156132553614709,-0.09176090087943346,-0.6398524789740159,-0.6192793159151601,0.40261897735093655,0.07584004168299449,19.68222117984304,8.350582122802734,-4.497013092041016,7.737257480621351,-0.3040364839939122,-1.973531554155926,-1.890854175473472,0.06316837084615726,0.12597191397588303,0.060408433800502,0.002370244802745643,0.019817974973481305,0.019716032107511952,-5.128918945789337,-35.641119956970215,-34.32190942764282,-1.520182419969561,-9.86765777077963,-9.45427087736736,-0.929717183113098,-6.968555927276611,-6.802148818969727,-0.3007052661481409,-1.9470524679438599,-1.8657720507219842,-0.30643844599611053,-1.9971913575438798,-1.9156132553614709,-0.08666913414540114,-0.6067518516121966,-0.5875572608052287,0.0040179415631841926,0.026092614159957044,0.0249972743254017,-0.43334567072700575,-3.0337592580609827,-2.937786304026144,-0.08159859126425496,-0.5738474347837178,-0.5560418256931151,-0.09176090087943346,-0.6398524789740159,-0.6192793159151601
-134.5732421875,7.731327533721924,18.727914810180664,-0.9642454385757446,-6.902969837188721,-6.873612880706787,-0.1247157230973243,-0.0803262442350387,-3.275651216506958,0.5166666666666666,-0.09976251276848269,-1.1383806652697395,-1.3267987787064621,-0.3072698002691812,-2.0066778630877944,-1.9266699118506914,-0.0943214825483433,-0.6565747944997475,-0.6353348985139158,0.3528458292167792,0.06492804904598244,19.592566127658994,7.870330810546875,8.310985565185547,-4.1433906555175914,-0.30534939081812024,-1.9854566331847128,-1.903033747699213,0.06242140840296295,0.14575440989642993,0.052503705075901956,0.001817342968075022,0.017730670941654866,0.01914961997299676,-5.023391783237457,-35.32181167602539,-34.38468647003174,-1.5267469540906011,-9.927283165923564,-9.515168738496065,-0.929717183113098,-6.902969837188721,-6.802148818969727,-0.3025993626077245,-1.9618453024984739,-1.878427699035365,-0.3072698002691812,-2.0066778630877944,-1.9266699118506914,-0.08921371240221883,-0.6232973235554023,-0.6034158753693889,0.0040326497512731966,0.026240044954412612,0.02515679147884968,-0.4460685620110941,-3.116486617777012,-3.0170793768469446,-0.08412025261931934,-0.5901961456378717,-0.5716953898517432,-0.0943214825483433,-0.6565747944997475,-0.6353348985139158
-134.59080505371094,7.707031726837158,18.736677169799805,-0.9979650974273682,-6.964980125427246,-6.888920307159424,-0.6016399264335632,0.2641339898109436,-3.4103944301605225,0.525,-0.1250024706889309,-1.1375256407079561,-1.2781198103328748,-0.3083114875249223,-2.016157243427027,-1.937320910270132,-0.09689074494438432,-0.6733761048616395,-0.6514792394328336,0.31279696666405077,0.08901290291790898,19.6516634895953,-7.441234588623047,-1.8368911743164062,-4.046359062194824,-0.3064918158015598,-1.9963190213704234,-1.9148123899461666,0.055677582486562065,0.09009248970242291,0.03190209460279091,0.0014050470973413344,0.016221759423343175,0.0183255395612867,-4.9659698605537415,-35.01400899887085,-34.471457958221436,-1.5324590790077992,-9.981595106852117,-9.574061949730833,-0.929717183113098,-6.902969837188721,-6.860657691955566,-0.30461114182553406,-1.9749402439626125,-1.8910212712681256,-0.3083114875249223,-2.016157243427027,-1.937320910270132,-0.09176781086723182,-0.639933315400156,-0.619372645285607,0.004044300227305093,0.026375059578770312,0.025309394811342978,-0.4588390543361591,-3.1996665770007797,-3.096863226428035,-0.08665867880119879,-0.6066539810042268,-0.5874539004456443,-0.09689074494438432,-0.6733761048616395,-0.6514792394328336
-134.607666015625,7.682608604431152,18.744726181030277,-0.9997385144233704,-6.937699317932129,-6.808504104614258,-0.5311240553855896,0.3770159482955932,-3.4011223316192627,0.5333333333333333,-0.1180919835772517,-1.047774916158696,-1.1349584403242234,-0.30929558738806606,-2.024888701061683,-1.946778897272834,-0.0994682081726182,-0.6902501773704868,-0.6677023969101072,0.2843725843392678,0.12268616119051544,19.57682944485748,3.2736968994140625,9.649944305419922,-0.21281003952026367,-0.3074287049140662,-2.0063087127902373,-1.9259639151471084,0.03020933542411692,0.04980905157837605,0.049384281275332634,0.001399287661859102,0.015106180159526368,0.017156334777759002,-4.885860562324524,-34.81234931945801,-34.41930437088013,-1.537143524570331,-10.031543563951187,-9.629819575735542,-0.929717183113098,-6.902969837188721,-6.808504104614258,-0.30582820339205086,-1.986628398830803,-1.9034366009804136,-0.30929558738806606,-2.024888701061683,-1.946778897272834,-0.0943297167415157,-0.656652554673408,-0.6354223445784994,0.004055907326465426,0.02650086207304742,0.025452191682798136,-0.4716485837075785,-3.28326277336704,-3.1771117228924974,-0.08920724716279921,-0.6232092176611502,-0.6033158721204811,-0.0994682081726182,-0.6902501773704868,-0.6677023969101072
-134.62490844726562,7.6604228019714355,18.75140953063965,-1.044616460800171,-6.800046920776367,-6.738077640533447,-0.530483603477478,0.2634168267250061,-3.0545358657836914,0.5416666666666666,-0.15398964174697638,-0.8497307203762885,-1.003742502509252,-0.3105788344026242,-2.0319697903981524,-1.9551434181270777,-0.10205636512597341,-0.7071832589571381,-0.6839952587278328,0.23407909712158656,0.059557522268674695,19.43679655142995,16.518287658691406,8.451175689697266,-5.3853535652160645,-0.3083788311161809,-2.0153769911037074,-1.9363052785764414,0.043014305125148734,0.06935476316861607,0.07897014233389323,0.001634016180726981,0.013899590863161431,0.0157051250769576,-4.936282694339752,-34.574252128601074,-34.251986026763916,-1.5418941555809045,-10.076884955518537,-9.681526392882207,-0.929717183113098,-6.800046920776367,-6.738077640533447,-0.30643844599611053,-1.9971913575438798,-1.9156132553614709,-0.3105788344026242,-2.0319697903981524,-1.9551434181270777,-0.09689954033415053,-0.6734473629326055,-0.6515582218999698,0.0040694892538670445,0.026616489837303033,0.0255828359277509,-0.4844977016707527,-3.367236814663028,-3.2577911094998493,-0.09176090087943346,-0.6398524789740159,-0.6192793159151601,-0.10205636512597341,-0.7071832589571381,-0.6839952587278328
-134.64630126953125,7.643389225006103,18.757930755615234,-1.111545205116272,-6.809247016906738,-6.616355419158936,-1.047161102294922,-0.1174156591296196,-2.640904664993286,0.55,-0.21109478684418803,-0.8002934430424515,-0.8235200815887893,-0.31233795762632577,-2.0386389024235063,-1.962006085473651,-0.10465918143952613,-0.7241719164773339,-0.7003453094401133,0.12752738895681046,0.12546125347371945,19.367485702413937,-1.1040115356445312,14.6066665649413,-8.031449317932129,-0.3095587334422239,-2.023666500079633,-1.9455838445988771,0.05684525257570675,0.07488702485687061,0.11163195557244711,0.0019766623592336586,0.012645295168770457,0.014040268231116497,-5.118110716342926,-34.4149432182312,-33.92547035217285,-1.5477936672111194,-10.118332500398164,-9.727919222994386,-0.9642454385757446,-6.800046920776367,-6.616355419158936,-0.3072698002691812,-2.0066778630877944,-1.9266699118506914,-0.31233795762632577,-2.0386389024235063,-1.962006085473651,-0.09947919644616907,-0.6903112504332691,-0.6677714206049605,0.004085837047247595,0.026721530275148692,0.02569941173578079,-0.49739598223084536,-3.4515562521663457,-3.338857103024803,-0.0943214825483433,-0.6565747944997475,-0.6353348985139158,-0.10465918143952613,-0.7241719164773339,-0.7003453094401133
-134.6670684814453,7.6316609382629395,18.76698303222656,-1.1794812679290771,-6.8117852210998535,-6.556817531585693,-0.9894010424613952,-0.8163257241249084,-2.35932731628418,0.5583333333333333,-0.26817679115994286,-0.7447527681280857,-0.7076616454507052,-0.3145727642193253,-2.0448451754912402,-1.967903265852407,-0.10728062114135384,-0.7412122929397609,-0.7167445033222167,0.04155725910257426,0.14651684718859753,19.33681772209405,-0.3045845031738281,7.144546508789169,-8.152327537536621,-0.3110193262322527,-2.031299962560322,-1.9538305153992206,0.07814523688916415,0.07974963700910598,0.1360602015575993,0.0024931611159976132,0.011271509634369003,0.012133613895396621,-5.3333465456962585,-34.323758602142334,-33.60867500305176,-1.5550966311612635,-10.15649981280161,-9.769152576996103,-0.9979650974273682,-6.800046920776367,-6.556817531585693,-0.3083114875249223,-2.016157243427027,-1.937320910270132,-0.3145727642193253,-2.0448451754912402,-1.967903265852407,-0.10207102416477118,-0.7072387501212718,-0.6840533415666207,0.004106355364398162,0.026815234298059654,0.025800044422056582,-0.5103551208238559,-3.5361937506063588,-3.4202667078331035,-0.09689074494438432,-0.6733761048616395,-0.6514792394328336,-0.10728062114135384,-0.7412122929397609,-0.7167445033222167
-134.6829071044922,7.630625247955322,18.779205322265625,-1.2740764617919922,-6.677188873291016,-6.421754837036133,-0.4727747738361358,-1.9440821409225464,-1.7464936971664429,0.5666666666666667,-0.3506630487673428,-0.5538459578105979,-0.5185536959700983,-0.3174949562923865,-2.0494605584729952,-1.9722245466521577,-0.1099264124437904,-0.7582911309270358,-0.7331797078776514,-0.07266599713613993,0.11192105832885163,19.160360987504895,16.151561737060547,16.207523345947266,-11.351423263549805,-0.3128560199857455,-2.0379606255695153,-1.9608112426756255,0.1089457128024797,0.09220811502901523,0.15201806661428668,0.0032633412283840633,0.00983451651447702,0.010136800559448409,-5.609457910060883,-34.0359673500061,-33.14150953292847,-1.5642800999287276,-10.189803127847577,-9.804056213378127,-0.9997385144233704,-6.677188873291016,-6.421754837036133,-0.30929558738806606,-2.024888701061683,-1.946778897272834,-0.3174949562923865,-2.0494605584729952,-1.9722245466521577,-0.10467815766465238,-0.7242217553343512,-0.7003934352555843,0.00413324098912864,0.02689694068783191,0.02588389266031583,-0.5233907883232619,-3.621108776671756,-3.5019671762779216,-0.0994682081726182,-0.6902501773704868,-0.6677023969101072,-0.1099264124437904,-0.7582911309270358,-0.7331797078776514
-134.69903564453125,7.63783073425293,18.793519973754883,-1.302305817604065,-6.717058181762695,-6.368987083435059,-0.5204172134399414,-2.8593297004699707,-1.1846455335617063,0.575,-0.3658744749406089,-0.5388448518062079,-0.4139410956720191,-0.3205439102502249,-2.053950932238047,-1.975674055782758,-0.11259761169587561,-0.7754073886956863,-0.7496436583425077,-0.12113485701245341,0.16741572560948015,19.15538206013796,-4.7843170166015625,6.332130432128906,-3.3875226974487305,-0.31510568455817733,-2.0437730718047886,-1.96659027437761,0.10816099486899619,0.06197870109252346,0.1488071514231209,0.003991228096879174,0.008700041682653807,0.008185801140079604,-5.912025213241577,-33.81532621383667,-32.70199251174927,-1.5755284227908868,-10.218865359023942,-9.83295137188805,-1.044616460800171,-6.677188873291016,-6.368987083435059,-0.3105788344026242,-2.0319697903981524,-1.9551434181270777,-0.3205439102502249,-2.053950932238047,-1.975674055782758,-0.10730403836930387,-0.7412531975993909,-0.7167816875420645,0.004166312979261695,0.026969114272479215,0.0259514451330879,-0.5365201918465193,-3.7062659879969546,-3.5839084377103223,-0.10205636512597341,-0.7071832589571381,-0.6839952587278328,-0.11259761169587561,-0.7754073886956863,-0.7496436583425077
-134.71131896972656,7.655658721923828,18.810583114624023,-1.3376600742340088,-6.6927409172058105,-6.355247974395752,-0.1196056753396987,-3.947627305984497,-0.5438030362129211,0.5833333333333334,-0.38780959486002553,-0.4601561756728483,-0.34951683364647934,-0.3237756568740584,-2.057785567035321,-1.9785866960631453,-0.11529574216982609,-0.7925556017543139,-0.7661318808097005,-0.15327498866787792,0.15078594928333863,19.13336112410377,2.918071746826172,1.6486930847167969,-4.242510795593262,-0.31774504905246415,-2.0489362271322222,-1.971278929964824,0.09319163443448666,0.06449881420097575,0.11669001556721657,0.004570679102826951,0.007525035001000193,0.006538262773455077,-6.205068826675415,-33.70802021026611,-32.31916284561157,-1.5887252452623208,-10.24468113566111,-9.85639464982412,-1.111545205116272,-6.677188873291016,-6.355247974395752,-0.31233795762632577,-2.0386389024235063,-1.962006085473651,-0.3237756568740584,-2.057785567035321,-1.9785866960631453,-0.10995191377807441,-0.7583276661588261,-0.733209011958438,0.004204333764977335,0.027031560575652307,0.02600536839645403,-0.549759568890372,-3.7916383307941306,-3.66604505979219,-0.10465918143952613,-0.7241719164773339,-0.7003453094401133,-0.11529574216982609,-0.7925556017543139,-0.7661318808097005
-134.72084045410156,7.681873798370361,18.82650756835937,-1.3549755811691284,-6.611318111419678,-6.29305362701416,0.2470877319574356,-4.600060939788818,0.3014667630195617,0.5916666666666667,-0.39140057274601436,-0.325881428200951,-0.2378680979683221,-0.32703732831360854,-2.060501245603662,-1.9805689302128813,-0.11802105323910617,-0.8097264454676778,-0.7826366218948079,-0.174649089562624,0.13124817070653758,19.034981385435294,9.770736694335938,7.463321685791016,-2.0778608322143555,-0.32068492318992076,-2.053308695768253,-1.9749914989126698,0.06912351390861535,0.07280808588660047,0.09932730799708453,0.004936090211395121,0.0062973596309840426,0.005059598281184878,-6.4484992027282715,-33.51009130477905,-31.995861053466797,-1.6034246159496037,-10.266543478841266,-9.874957494563349,-1.1794812679290771,-6.611318111419678,-6.29305362701416,-0.3145727642193253,-2.0448451754912402,-1.967903265852407,-0.32703732831360854,-2.060501245603662,-1.9805689302128813,-0.11262428813799041,-0.7754385719568949,-0.7496672744493769,0.00424546116651939,0.02708378140420942,0.026047122688729725,-0.5631214406899521,-3.8771928597844747,-3.748336372246884,-0.10728062114135384,-0.7412122929397609,-0.7167445033222167,-0.11802105323910617,-0.8097264454676778,-0.7826366218948079
-134.73406982421875,7.716517448425293,18.839427947998047,-1.3459975719451904,-6.646116256713867,-6.355666160583496,-0.1732802838087082,-5.019211292266846,1.2354129552841189,0.6,-0.36876958218168276,-0.3088369572221126,-0.25160379929572674,-0.33011040816512255,-2.0630748869138467,-1.9826656285403457,-0.12077197330714885,-0.8269187361919599,-0.7991588354659774,-0.14646963408729535,0.12194135613661224,19.10197180678992,-4.175777435302734,-7.5135040283203125,1.0773611068725586,-0.3237924519790802,-2.0569546380527743,-1.9779439714502576,0.03386740915230886,0.041203995160480685,0.045858507502679086,0.005016411819188485,0.005383070489748011,0.004106759253584126,-6.615015506744385,-33.344422340393066,-31.7947096824646,-1.618962259895401,-10.284773190263872,-9.889719857251288,-1.2740764617919922,-6.611318111419678,-6.29305362701416,-0.3174949562923865,-2.0494605584729952,-1.9722245466521577,-0.33011040816512255,-2.0630748869138467,-1.9826656285403457,-0.11532255857114944,-0.7925798606073348,-0.766150140878129,0.004287261423629827,0.027128283727164103,0.026081083787273366,-0.5766127928557472,-3.9628993030366737,-3.830750704390645,-0.1099264124437904,-0.7582911309270358,-0.7331797078776514,-0.12077197330714885,-0.8269187361919599,-0.7991588354659774
-134.74331665039062,7.756019592285156,18.84825134277344,-1.3390591144561768,-6.642352104187012,-6.342576503753662,0.3945232331752777,-5.12282133102417,2.0264317989349365,0.6083333333333333,-0.34845406377905475,-0.25357720897290204,-0.18979701272020844,-0.33301419202994803,-2.0651880303219543,-1.984247270313014,-0.12354709157406508,-0.8441286364446429,-0.8156942293852526,-0.13806788753247184,0.13338534834575688,19.08929647663296,0.45169830322265625,1.5707588195800781,0.8326148986816406,-0.3268962991265925,-2.0601001324225665,-1.9803485161824288,0.020046421625051165,0.0423773523245705,0.02949803410104959,0.004946469756933478,0.004417766317625372,0.003375369089249374,-6.679998159408569,-33.30958557128906,-31.71553134918213,-1.6344814956329625,-10.300500662112832,-9.901742580912144,-1.302305817604065,-6.611318111419678,-6.29305362701416,-0.3205439102502249,-2.053950932238047,-1.975674055782758,-0.33301419202994803,-2.0651880303219543,-1.984247270313014,-0.11804669439720436,-0.8097473617108563,-0.7826530451796492,0.0043284642817180315,0.02716486217738574,0.02610904885241974,-0.5902334719860218,-4.048736808554281,-3.913265225898246,-0.11259761169587561,-0.7754073886956863,-0.7496436583425077,-0.12354709157406508,-0.8441286364446429,-0.8156942293852526
-134.75445556640625,7.798093795776367,18.85067749023437,-1.2628886699676514,-6.651557445526123,-6.356693267822266,0.2446543872356414,-4.758484840393066,2.7450644969940186,0.6166666666666667,-0.2597473585201233,-0.21184829993885135,-0.15576539543920642,-0.33517875335094904,-2.0669534328214447,-1.9855453152750075,-0.12634024785198966,-0.8613532483848215,-0.8322404403458776,-0.05752709170902617,0.15902126283781765,19.095314018207922,-1.1046409606933594,-1.6940116882324219,9.140453338623047,-0.3298232677467373,-2.062700632539246,-1.9823227680808788,0.03710334690341925,0.029120766135649855,0.027226358940292177,0.004562913796315646,0.003654062674350751,0.002794649080945155,-6.640581011772156,-33.24408483505249,-31.703237533569336,-1.6491163387336865,-10.313503162696229,-9.911613840404394,-1.2628886699676514,-6.611318111419678,-6.29305362701416,-0.3237756568740584,-2.057785567035321,-1.9785866960631453,-0.33517875335094904,-2.0669534328214447,-1.9855453152750075,-0.12079522162842718,-0.8269365336486831,-0.7991724015803232,0.004366375186296687,0.02719519526335536,0.026132231958146002,-0.6039761081421359,-4.134682668243416,-3.995862007901616,-0.11529574216982609,-0.7925556017543139,-0.7661318808097005,-0.12634024785198966,-0.8613532483848215,-0.8322404403458776
-134.76133728027344,7.84061861038208,18.852279663085938,-1.268646478652954,-6.787203788757324,-6.3651299476623535,0.7929654121398926,-4.769101619720459,2.8878512382507324,0.625,-0.2536958380636749,-0.2959422320074667,-0.11643729778393297,-0.337292885334813,-2.0694196180881734,-1.9865156260898738,-0.12915102189644645,-0.8785984118688897,-0.8487947372299599,-0.07249449016012126,0.2496786364508874,19.197378949203287,-16.27756118774414,-1.0124015808105469,-0.6909370422363281,-0.33252671343888823,-2.065027442749816,-1.9839085540862247,0.04472029929856518,0.06860945323602433,0.02886080414559033,0.004060764270526226,0.0034396716860443555,0.002360534464409464,-6.571567416191101,-33.338547706604004,-31.713119506835938,-1.6626335671944412,-10.32513721374908,-9.919542770431123,-1.2628886699676514,-6.611318111419678,-6.29305362701416,-0.32703732831360854,-2.060501245603662,-1.9805689302128813,-0.337292885334813,-2.0694196180881734,-1.9865156260898738,-0.12356627757375124,-0.8441450956715985,-0.815704972864375,0.0044000652726097775,0.027223807276351403,0.02615169595206686,-0.6178313878687562,-4.220725478357992,-4.078524864321875,-0.11802105323910617,-0.8097264454676778,-0.7826366218948079,-0.12915102189644645,-0.8785984118688897,-0.8487947372299599
-134.75894165039062,7.885538101196289,18.85603141784668,-1.2356468439102173,-6.818037509918213,-6.342427730560303,1.848989486694336,-5.10795259475708,2.878476858139038,0.6333333333333333,-0.20924378753066408,-0.27442947829947606,-0.04666252716186481,-0.3390365835642352,-2.0717065304073357,-1.9869044804828893,-0.13197632675948173,-0.8958626329556174,-0.8653522745673173,-0.0459451982498587,0.29831210593434965,19.198703161412023,-3.7000465393066406,2.7242660522460938,3.959956169128418,-0.33492656448901353,-2.067268499710551,-1.985175664140226,0.049210733344644944,0.08616981943609489,0.00983679352068699,0.003514536261174233,0.003403580286103153,0.001738040545033824,-6.45223867893219,-33.54526710510254,-31.76249361038208,-1.6746328224450677,-10.336342498552755,-9.92587832070113,-1.2356468439102173,-6.642352104187012,-6.342427730560303,-0.33011040816512255,-2.0630748869138467,-1.9826656285403457,-0.3390365835642352,-2.0717065304073357,-1.9869044804828893,-0.12635733227782636,-0.8613723331691864,-0.8322481033988769,0.004429214947145632,0.02725212997341795,0.026165854160556747,-0.6317866613891318,-4.306861665845932,-4.1612405169943845,-0.12077197330714885,-0.8269187361919599,-0.7991588354659774,-0.13197632675948173,-0.8958626329556174,-0.8653522745673173
-134.745361328125,7.930450916290283,18.863903045654297,-1.1993048191070557,-6.792077541351318,-6.306868076324463,3.14497971534729,-5.5002217292785645,2.5664825439453125,0.6416666666666666,-0.1621587165008862,-0.19670038271824541,0.03491091059096174,-0.3403879062017426,-2.073345700263321,-1.9866135562279645,-0.13481289264449625,-0.9131405137911451,-0.8819073875358837,-0.012171020090677347,0.3149058082358103,19.15065953277563,3.1151962280273438,4.267158508300781,4.3610429763793945,-0.3369820640963376,-2.069322662380446,-1.98596524967775,0.051488540768275505,0.08421984580509746,0.022265009469166423,0.0029543763687505287,0.003338618425103478,0.0010877922690827545,-6.305545926094055,-33.69122838973999,-31.713695526123047,-1.6849103204816878,-10.34661331190223,-9.92982624838875,-1.1993048191070557,-6.642352104187012,-6.306868076324463,-0.33301419202994803,-2.0651880303219543,-1.984247270313014,-0.3403879062017426,-2.073345700263321,-1.9869044804828893,-0.12916551614529584,-0.8786166886890234,-0.8487978138128582,0.004453722131755778,0.027279889782210458,0.026173879969053623,-0.6458275807264792,-4.393083443445117,-4.243989069064291,-0.12354709157406508,-0.8441286364446429,-0.8156942293852526,-0.13481289264449625,-0.9131405137911451,-0.8819073875358837
-134.72398376464844,7.980007171630859,18.87297821044922,-1.22033429145813,-6.667957305908203,-6.226510524749756,4.034972667694092,-5.953235626220703,2.828413963317871,0.65,-0.17269300938397802,-0.022692072075882308,0.1597448217581059,-0.34182701461327575,-2.0735348008639534,-1.9852823493799803,-0.1376614510996069,-0.9304199704650115,-0.8984514071140502,-0.032378380504525364,0.2723936574583979,19.010274836492385,14.894428253173828,9.642906188964844,-2.523536682128933,-0.3387446286130031,-2.070992016488846,-1.9861722654911431,0.02903258124799786,0.0774365582171171,0.0565634969971412,0.0026033501163034148,0.0027972622599046243,0.0007130550586676388,-6.186821103096008,-33.71683359146118,-31.59762954711914,-1.6937231430650155,-10.35496008244423,-9.930861327455716,-1.1993048191070557,-6.651557445526123,-6.226510524749756,-0.33517875335094904,-2.0669534328214447,-1.9852823493799803,-0.34182701461327575,-2.0735348008639534,-1.9869044804828893,-0.1319883880504042,-0.8958749554930969,-0.8653492493586178,0.004475314246776125,0.027302403446704777,0.026173316102354963,-0.659941940252021,-4.479374777465485,-4.326746246793089,-0.12634024785198966,-0.8613532483848215,-0.8322404403458776,-0.1376614510996069,-0.9304199704650115,-0.8984514071140502
-134.69747924804688,8.032567024230957,18.88095092773437,-1.2820433378219604,-6.705652236938477,-6.195089817047119,4.692771434783936,-6.151386260986328,3.213165044784546,0.6583333333333333,-0.2233257470868606,-0.011828397524149992,0.23415120352281615,-0.34368806250566625,-2.0736333708433214,-1.9833310893506235,-0.14052551828715412,-0.9477002485553725,-0.9149791661919721,-0.09605170960657869,0.29779300778521745,19.02361157623266,-4.5233917236328125,3.7704849243164062,-7.405085563659641,-0.34044649044394654,-2.072328004093221,-1.985729420306266,0.03406944685139787,0.0640192792063515,0.07361642185233253,0.0024672926012492455,0.0018056151995123166,0.0014775356227405701,-6.205975770950317,-33.770928382873535,-31.436026096343994,-1.7022324522197327,-10.361640020466105,-9.92864710153133,-1.1993048191070557,-6.667957305908203,-6.195089817047119,-0.337292885334813,-2.0694196180881734,-1.9833310893506235,-0.34368806250566625,-2.0736333708433214,-1.9869044804828893,-0.13482544213743708,-0.9131443555272073,-0.8818969945278367,0.004495844635441794,0.027315914717876023,0.026162788282653327,-0.6741272106871854,-4.565721777636036,-4.409484972639183,-0.12915102189644645,-0.8785984118688897,-0.8487947372299599,-0.14052551828715412,-0.9477002485553725,-0.9149791661919721
-134.6625213623047,8.089487075805664,18.88814926147461,-1.3432425260543823,-6.694671630859375,-6.064436435699463,5.690856456756592,-6.413600444793701,3.617870092391968,0.6666666666666666,-0.27253381126707144,0.047345775887222,0.4058867352558888,-0.3459591775995585,-2.0732388227109277,-1.9799486998901579,-0.1434085114338171,-0.9649772387446303,-0.9314787386910567,-0.18378101211311676,0.3519531996472358,18.933742187080814,1.3176727294921875,15.67840576171875,-7.343902587890625,-0.3421797488968957,-2.073091845017772,-1.9844160350663231,0.05742404911512557,0.0654468454103322,0.10856779020017779,0.0027282641591501833,0.0007897153925235481,0.002868194166997938,-6.280571818351746,-33.678396224975586,-31.135332584381104,-1.7108987444844783,-10.365459225088859,-9.922080175331615,-1.1993048191070557,-6.667957305908203,-6.064436435699463,-0.3390365835642352,-2.0717065304073357,-1.9799486998901579,-0.3459591775995585,-2.0736333708433214,-1.9869044804828893,-0.1376769400449112,-0.9304201209023553,-0.898433794820056,0.004518442979544329,0.027320331258966487,0.026140137047365876,-0.688384700224556,-4.6521006045117765,-4.49216897410028,-0.13197632675948173,-0.8958626329556174,-0.8653522745673173,-0.1434085114338171,-0.9649772387446303,-0.9314787386910567
-134.62896728515625,8.152015686035156,18.892723083496094,-1.4123144149780271,-6.685843467712402,-6.079418659210205,5.595531463623047,-6.699851512908936,4.355418682098389,0.675,-0.3286456807218725,0.10361182306775252,0.43048960967921346,-0.34869789160557413,-2.07237539085203,-1.9763612864761644,-0.1463143271971969,-0.9822470336683972,-0.947948416078358,-0.2313071597575715,0.31227243574216823,18.948022162327092,1.0593795776367188,-1.7978668212890625,-8.288626670837376,-0.3441120105051635,-2.0732256171067105,-1.982307396264978,0.08793084810960183,0.04831880129396543,0.10223109385604107,0.0033057609841284667,0.0004998341593921087,0.004164161902626808,-6.457239389419556,-33.546202182769775,-30.872323513031006,-1.7205600525258173,-10.366128085533553,-9.91153698132489,-1.1993048191070557,-6.667957305908203,-6.064436435699463,-0.3403879062017426,-2.07237539085203,-1.9763612864761644,-0.34869789160557413,-2.0736333708433214,-1.9866135562279645,-0.14054454013245427,-0.9476970010449113,-0.9149530231222641,0.004545798101424116,0.027317384468353734,0.02610609735789087,-0.7027227006622713,-4.738485005224557,-4.574765115611321,-0.13481289264449625,-0.9131405137911451,-0.8819073875358837,-0.1463143271971969,-0.9822470336683972,-0.947948416078358
-134.59048461914062,8.217602729797363,18.89413452148437,-1.4439276456832886,-6.662156105041504,-6.103707790374756,6.210812091827393,-6.645856380462647,4.8509521484375,0.6833333333333333,-0.34658810759441927,0.17387934161048424,0.4456072735260941,-0.3515861258355276,-2.070926396338609,-1.9726478925301136,-0.14924421157915962,-0.9995047536378856,-0.964387148516109,-0.2380127302742407,0.2677057372296935,18.953094847078503,2.8424835205078125,-2.9146957397460938,-3.7935876846313743,-0.3463516544319204,-2.072741756321768,-1.9795142635254082,0.09181367960176678,0.01815116149277287,0.07250147085254227,0.00389312359334608,0.0011292394152169966,0.005126305289335944,-6.701862215995789,-33.41628074645996,-30.6691632270813,-1.731758272159602,-10.36370878160884,-9.89757131762704,-1.22033429145813,-6.662156105041504,-6.064436435699463,-0.34182701461327575,-2.070926396338609,-1.9726478925301136,-0.3515861258355276,-2.0736333708433214,-1.9852823493799803,-0.14343080391938692,-0.9649698490142594,-0.9314489753183091,0.0045781281281560855,0.027308853918287676,0.02606362314085606,-0.7171540195969346,-4.824849245071297,-4.6572448765915455,-0.1376614510996069,-0.9304199704650115,-0.8984514071140502,-0.14924421157915962,-0.9995047536378856,-0.964387148516109
-134.5572967529297,8.284896850585938,18.89132499694824,-1.411448359489441,-6.607919692993164,-6.162952423095703,5.677907943725586,-6.4699907302856445,5.3867506980896,0.6916666666666667,-0.300590301180893,0.2734611449640276,0.4259650404882098,-0.35409104501203503,-2.068647553463909,-1.9690981838593786,-0.15219497028759324,-1.0167434832500848,-0.9807963000482705,-0.1693239635073059,0.20085267885002225,18.951649703782927,6.508369445800781,-7.109355926513672,3.8975143432617188,-0.34880446051167235,-2.0717643068417595,-1.9762774304212876,0.06530068462747883,0.0388538373266503,0.055849572022310404,0.004182408337041984,0.0020283778366636538,0.005655848347984601,-6.8929762840271,-33.35624313354492,-30.605605125427246,-1.7440223025583617,-10.358821534208797,-9.881387152106438,-1.2820433378219604,-6.607919692993164,-6.064436435699463,-0.34368806250566625,-2.068647553463909,-1.9690981838593786,-0.35409104501203503,-2.0736333708433214,-1.9833310893506235,-0.1463375077569842,-0.982234551571274,-0.9479179539051532,0.00461295926722311,0.027292669948302185,0.026016497059818674,-0.731687538784921,-4.91117275785637,-4.739589769525766,-0.14052551828715412,-0.9477002485553725,-0.9149791661919721,-0.15219497028759324,-1.0167434832500848,-0.9807963000482705
-134.53424072265625,8.347901344299316,18.887651443481445,-1.320127010345459,-6.664673805236816,-6.2739787101745605,4.447387218475342,-5.99503755569458,5.057338714599609,0.7,-0.19693889331678327,0.2615055365030825,0.35546583393077746,-0.3557322024563416,-2.0664683406597164,-1.9661359685766222,-0.15515940530806274,-1.0339640527555825,-0.9971807664530756,-0.044132864565125524,0.19827175652765952,19.055656369896397,-6.810493469238281,-13.32315444946289,10.958561897277832,-0.35121328850180744,-2.070331300805038,-1.9728384062664872,0.052112635735991716,0.03377223788722684,0.0853318477988428,0.003961501497437834,0.0027723452457290676,0.005520760602274469,-6.931059956550598,-33.31526470184326,-30.684494018554688,-1.756066442509037,-10.351656504025192,-9.864192031332436,-1.320127010345459,-6.607919692993164,-6.064436435699463,-0.3459591775995585,-2.0664683406597164,-1.9661359685766222,-0.3557322024563416,-2.0732388227109277,-1.9799486998901579,-0.1492642851611659,-0.999487312411316,-0.964358273957374,0.0046458071887565035,0.02726991820941471,0.025970525717025548,-0.7463214258058296,-4.99743656205658,-4.82179136978687,-0.1434085114338171,-0.9649772387446303,-0.9314787386910567,-0.15515940530806274,-1.0339640527555825,-0.9971807664530756
-134.5189666748047,8.404839515686035,18.885299682617188,-1.2715115547180176,-6.745461463928223,-6.43778133392334,3.5204081535339355,-5.633749485015869,4.465573310852051,0.7083333333333334,-0.13730826808654362,0.22611205593427197,0.23398821399038017,-0.3568764380237294,-2.0645840735269307,-1.964186066793369,-0.15813337562492716,-1.0511689200349736,-1.0135489836763536,0.054189030866690545,0.16575482300322875,19.219176870806436,-9.69451904296875,-19.656314849853516,5.833854675292969,-0.3533967405866415,-2.068600350968239,-1.9696858796471297,0.0727042914374587,0.04959273622702635,0.1470784795596273,0.0032940189190975647,0.0031756729094577535,0.004912478321198267,-6.859328985214233,-33.36605453491211,-31.057838916778564,-1.7669837029332076,-10.343001754841195,-9.848429398235648,-1.2715115547180176,-6.607919692993164,-6.079418659210205,-0.34869789160557413,-2.0645840735269307,-1.964186066793369,-0.3568764380237294,-2.07237539085203,-1.9763612864761644,-0.15220925799938792,-1.0167256486693848,-0.9807723229544333,0.004672805697853088,0.027243512778031668,0.02592985675342898,-0.7610462899969396,-5.083628243346924,-4.9038616147721665,-0.1463143271971969,-0.9822470336683972,-0.947948416078358,-0.15813337562492716,-1.0511689200349736,-1.0135489836763536
-134.5105743408203,8.452056884765625,18.884855270385746,-1.1350018978118896,-6.819008827209473,-6.548477649688721,2.6274185180664062,-4.931943416595459,3.4435136318206787,0.7166666666666667,0.008531253839862085,0.19869003077228875,0.1673957941521369,-0.35680534424173055,-2.062928323270495,-1.9627911018421011,-0.16110675349360826,-1.068359989395561,-1.0299055761917044,0.21667870720918575,0.19095743004211843,19.32768122075035,-8.82568359375,-13.283557891845703,16.38115882873535,-0.3550182311138729,-2.066710937451932,-1.9669718427203169,0.12271066131790916,0.08274751854870592,0.18612490181907568,0.00222460569756725,0.0031784881867470546,0.003958430733006427,-6.582016468048096,-33.49921989440918,-31.52689790725708,-1.7750911555693643,-10.33355468725966,-9.834859213601584,-1.1350018978118896,-6.607919692993164,-6.103707790374756,-0.3515861258355276,-2.062928323270495,-1.9627911018421011,-0.3568764380237294,-2.070926396338609,-1.9726478925301136,-0.1551677432586702,-1.0339482398148174,-0.9971637549771026,0.004690215723174495,0.02721708091885496,0.025897405165928526,-0.775838716293351,-5.169741199074087,-4.985818774885513,-0.14924421157915962,-0.9995047536378856,-0.964387148516109,-0.16110675349360826,-1.068359989395561,-1.0299055761917044
-134.51034545898438,8.485215187072754,18.8850154876709,-1.041020154953003,-6.969287395477295,-6.733126163482666,1.6697664260864258,-3.844171762466431,2.2204980850219727,0.725,0.10978881137088448,0.09584685455734387,0.028789795200232504,-0.3558904374803065,-2.062129599482517,-1.9625511868820993,-0.16407250713927748,-1.085544402724582,-1.0462601694157219,0.3514062297150909,0.20918244618701867,19.54768114404433,-18.033428192138672,-22.157821655273438,11.277809143066406,-0.35587909344282864,-2.0649515780807137,-1.964952501590714,0.1477651422626113,0.14115776661501142,0.22451728538735577,0.0011259950705399758,0.0026529693549112096,0.0027208757358698227,-6.17910897731781,-33.80635118484497,-32.15631628036499,-1.7793954672141432,-10.324757890403568,-9.82476250795357,-1.041020154953003,-6.607919692993164,-6.162952423095703,-0.35409104501203503,-2.062129599482517,-1.9625511868820993,-0.3568764380237294,-2.068647553463909,-1.9690981838593786,-0.1581334023706938,-1.0511561696321567,-1.013538359157025,0.004696366054919893,0.02719523864103844,0.025875741760852104,-0.7906670118534689,-5.255780848160784,-5.067691795785126,-0.15219497028759324,-1.0167434832500848,-0.9807963000482705,-0.16407250713927748,-1.085544402724582,-1.0462601694157219
-134.5125732421875,8.502126693725586,18.88929557800293,-0.929259479045868,-7.073050498962402,-6.817643165588379,1.27269446849823,-2.78515100479126,0.4575982987880707,0.7333333333333333,0.22699718164336868,0.041071838699847873,-0.007984460770518176,-0.35399879429994513,-2.061787334160018,-1.962617724055187,-0.16702249709177702,-1.1027259638425821,-1.0626153171161818,0.473167265714972,0.26446106682350545,19.66281675239894,-12.45157241821289,-10.142040252685547,13.411281108856189,-0.3558606433004107,-2.0635795342199357,-1.9636564096298756,0.16122398212015454,0.16592413130827946,0.21977646795883948,0.001162773111209801,0.0019424642448023477,0.0015393092519951342,-5.696920096874237,-34.27148199081421,-32.811007022857666,-1.7793032165020533,-10.317897671099677,-9.818282048149378,-0.929259479045868,-6.664673805236816,-6.2739787101745605,-0.35399879429994513,-2.061787334160018,-1.9625511868820993,-0.3568764380237294,-2.0664683406597164,-1.9661359685766222,-0.16109890773153052,-1.0683526657506561,-1.0299021625706075,0.004690504653452864,0.027179667566395616,0.025864314720039902,-0.8054945386576526,-5.341763328753281,-5.149510812853038,-0.15515940530806274,-1.0339640527555825,-0.9971807664530756,-0.16702249709177702,-1.1027259638425821,-1.0626153171161818
-134.51913452148438,8.502336502075195,18.896129608154297,-0.8595343232154846,-7.165209293365479,-6.931453704833984,0.7385351657867432,-1.637377142906189,-1.1532937288284302,0.7416666666666667,0.30056183179305906,-0.0010508375030511274,-0.07296519482208819,-0.35149411236833633,-2.06179609113921,-1.963225767345371,-0.1699516146948465,-1.119907597935409,-1.07897553184406,0.5637543673345131,0.2792518032655607,19.7964044268424,-11.059055328369247,-13.657264709472656,8.36701869964601,-0.35501302528280954,-2.062645084315834,-1.9630743693836255,0.1637004800013445,0.1737283908013353,0.2000169051836805,0.002283964702230366,0.0011792108408398175,0.000674773639572418,-5.236327409744263,-34.77201747894287,-33.46848201751709,-1.7750651264140478,-10.31322542157917,-9.815371846918127,-0.8595343232154846,-6.745461463928223,-6.43778133392334,-0.35149411236833633,-2.061787334160018,-1.9625511868820993,-0.3568764380237294,-2.0645840735269307,-1.964186066793369,-0.1640573496088873,-1.0855413747866216,-1.0462611156488044,0.004672637784156994,0.027170816390537898,0.025861555360438614,-0.8202867480444365,-5.427706873933108,-5.231305578244022,-0.15813337562492716,-1.0511689200349736,-1.0135489836763536,-0.1699516146948465,-1.119907597935409,-1.07897553184406
-134.52731323242188,8.488844871520996,18.905086517333984,-0.8606258630752563,-7.308306694030762,-6.920228004455566,0.4740298092365265,-0.6250641345977783,-2.533273458480835,0.75,0.30266710858541057,-0.09274237881385883,-0.012640759761874953,-0.3489718864634579,-2.0625689442959922,-1.9633311070100534,-0.17285971374870865,-1.137095672471209,-1.095336624402477,0.5380440743025607,0.3865818311488666,19.889813604714796,-17.171688079833878,1.3470840454101562,-0.13098478317260742,-0.3534321149707553,-2.062242058469647,-1.9629033774269622,0.120388978391109,0.1863853303776655,0.15755961954707076,0.003216855730445273,0.000499029509900382,0.0003553623820914061,-4.8254417181015015,-35.33486270904541,-33.950928688049316,-1.7671605748537764,-10.311210292348234,-9.814516887134811,-0.8595343232154846,-6.819008827209473,-6.548477649688721,-0.3489718864634579,-2.061787334160018,-1.9625511868820993,-0.35680534424173055,-2.062928323270495,-1.9633311070100534,-0.16700261723364357,-1.1027267252738686,-1.062618643794029,0.004646216612145767,0.02716942979049578,0.02586386730935587,-0.8350130861682179,-5.5136336263693435,-5.313093218970145,-0.16110675349360826,-1.068359989395561,-1.0299055761917044,-0.17285971374870865,-1.137095672471209,-1.095336624402477
-134.5277557373047,8.468217849731445,18.92480087280273,-0.8945425152778625,-7.338315963745117,-6.927038192749023,1.2425081729888916,-0.9739044904708862,-4.008217811584473,0.7583333333333333,0.27218428904901026,-0.070513228281329,0.029010510542151202,-0.34670368405471613,-2.06315655453167,-1.9630893527555355,-0.1757489111158313,-1.1542886437589728,-1.1116957023421064,0.5011142830492613,0.39134715037122475,19.920918726921908,-3.6011123657226562,-0.8172225952148438,-4.069998264312744,-0.3514117829333524,-2.0622877047218813,-1.9629630276096492,0.0750266278413753,0.15585508812556934,0.08795497798017114,0.0037039520222513396,0.0005811728606585292,0.00035683328909729523,-4.584982335567474,-35.854169845581055,-34.32948923110962,-1.7570589146667621,-10.311438523609407,-9.814815138048246,-0.8595343232154846,-6.969287395477295,-6.733126163482666,-0.34670368405471613,-2.061787334160018,-1.9625511868820993,-0.3558904374803065,-2.06315655453167,-1.9633311070100534,-0.1699310487580882,-1.119912456146551,-1.0789766690241094,0.004615387488977638,0.02717316615411533,0.025866225398293825,-0.849655243790441,-5.599562280732755,-5.394883345120547,-0.16407250713927748,-1.085544402724582,-1.0462601694157219,-0.1757489111158313,-1.1542886437589728,-1.1116957023421064
-134.52908325195312,8.443766593933105,18.952905654907227,-0.9192054867744446,-7.255647659301758,-6.86002254486084,0.9564995765686036,-1.3236156702041626,-5.063396453857422,0.7666666666666666,0.2513889401581717,0.06331308370031863,0.1433838221093211,-0.3446087762200647,-2.062628945500834,-1.9618944875712911,-0.17862065091766516,-1.171477218304813,-1.1280448230718672,0.46229243710857315,0.36779189580651805,19.820009281854716,9.920196533203125,8.041877746582031,-2.9595565795898438,-0.34915545068130405,-2.0623875739255446,-1.9628316877474876,0.03229249714273087,0.10878319555002004,0.05032388526650134,0.0037297593744260384,0.0005900479406730387,0.0005906001643612048,-4.463167667388916,-36.14053010940552,-34.45638561248779,-1.7457772534065201,-10.311937869627723,-9.814158438737438,-0.8595343232154846,-7.073050498962402,-6.817643165588379,-0.3446087762200647,-2.061787334160018,-1.9618944875712911,-0.35399879429994513,-2.06315655453167,-1.9633311070100534,-0.17284067751376572,-1.1370990192625972,-1.0953335997553384,0.00458432615022936,0.027177176440307056,0.025864139970812737,-0.8642033875688286,-5.6854950963129856,-5.476667998776692,-0.16702249709177702,-1.1027259638425821,-1.0626153171161818,-0.17862065091766516,-1.171477218304813,-1.1280448230718672
-134.53225708007812,8.418612480163574,18.98597526550293,-1.1236268281936646,-7.358108520507812,-6.87404727935791,0.6839256882667542,-1.7233130931854248,-5.507944583892822,0.775,0.05270367660552289,0.011548843349888926,0.17568192540112815,-0.34416957891501865,-2.062532705139585,-1.9604304715262817,-0.18148873074195698,-1.1886649908476428,-1.1443817436679196,0.2578736089193438,0.36380361141642387,19.932152556724155,-12.295303344726456,-1.6829681396484375,-24.530560970306396,-0.3471896076043187,-2.0625366481214584,-1.9623942372417065,0.11026324242335547,0.07736593867525676,0.033047680658983766,0.0030709389773093563,0.0004853570857899417,0.001240814084673084,-4.657535016536713,-36.42558813095093,-34.512789726257324,-1.7359480380215935,-10.312683240607292,-9.811971186208533,-0.8595343232154846,-7.165209293365479,-6.86002254486084,-0.34416957891501865,-2.06179609113921,-1.9604304715262817,-0.35149411236833633,-2.06315655453167,-1.9633311070100534,-0.17573392424380171,-1.1542868246636093,-1.1116868850656858,0.004559259891068024,0.027179196507427304,0.0258548817727168,-0.8786696212190086,-5.771434123318047,-5.5584344253284295,-0.1699516146948465,-1.119907597935409,-1.07897553184406,-0.18148873074195698,-1.1886649908476428,-1.1443817436679196
-134.5410919189453,8.399796485900879,19.02693748474121,-1.1459052562713623,-7.08311128616333,-6.85858678817749,-0.1646226793527603,-2.887134075164795,-5.646862983703613,0.7833333333333333,0.03799375943707184,0.3351613800548474,0.23687291315502534,-0.34385296425304307,-2.059739693639128,-1.9584565305833233,-0.18435417211073235,-1.2058294882946354,-1.160702214756114,0.2638503130061026,0.17540064684796203,19.730856550968742,32.999668121337784,1.8552589416503906,-2.6734113693237305,-0.3456613779812601,-2.062125368621442,-1.961440389889297,0.13510811638592155,0.11070511555631314,0.033185753764684724,0.002159262807975438,0.001357484953830006,0.002026292545918149,-4.94390594959259,-36.34349012374878,-34.43992280960083,-1.7283068899063005,-10.31062684310721,-9.807201949446485,-0.8606258630752563,-7.08311128616333,-6.85858678817749,-0.34385296425304307,-2.059739693639128,-1.9584565305833233,-0.3489718864634579,-2.06315655453167,-1.9633311070100534,-0.17861443572697888,-1.1714712027354546,-1.128032221648097,0.004542417873803956,0.02717092005402548,0.025838534309411982,-0.8930721786348944,-5.857356013677273,-5.640161108240484,-0.17285971374870865,-1.137095672471209,-1.095336624402477,-0.18435417211073235,-1.2058294882946354,-1.160702214756114
-134.57281494140625,8.379712104797363,19.06930351257324,-1.096560835838318,-7.292027473449707,-7.057194709777832,-2.9033610820770264,-2.9345078468322754,-5.848434448242188,0.7916666666666666,0.09458264553076101,0.17369358262553902,0.08496417172211412,-0.34306477554028675,-2.0582922471172482,-1.9577484958189724,-0.18721304524023474,-1.2229819236872792,-1.1770167855546054,0.3427999450892532,0.214146500032319,20.00885959243124,-25.069942474365234,-23.832950592041016,5.921330451965305,-0.3444799557966259,-2.0612700291856934,-1.960323867651081,0.11945335329654823,0.10948162440705839,0.08403219009676206,0.0013650777843826085,0.0021336058055908174,0.0022497559301061995,-5.179840922355652,-36.327210903167725,-34.576889514923096,-1.7223997789831293,-10.306350145928466,-9.801619338255405,-0.8945425152778625,-7.08311128616333,-6.85858678817749,-0.34306477554028675,-2.0582922471172482,-1.9577484958189724,-0.34670368405471613,-2.06315655453167,-1.9630893527555355,-0.18148510202528412,-1.1886484529786687,-1.1443682538785223,0.0045318284415387326,0.027154296385506514,0.025819929791395083,-0.9074255101264206,-5.943242264893343,-5.721841269392612,-0.1757489111158313,-1.1542886437589728,-1.1116957023421064,-0.18721304524023474,-1.2229819236872792,-1.1770167855546054
