Euler_X,Euler_Y,Euler_Z,Acc_X,Acc_Y,Acc_Z,Gyr_X,Gyr_Y,Gyr_Z,time_seconds,filtered_accel_x,filtered_accel_y,filtered_accel_z,Vel_X,Vel_Y,Vel_Z,Displacement_X,Displacement_Y,Displacement_Z,Acc_Global_X,Acc_Global_Y,Acc_Global_Z,Dy_dt,Dz_dt,Dx_dt,Vel_X_Roll_Mean,Vel_Y_Roll_Mean,Vel_Z_Roll_Mean,Acc_Global_X_Roll_Std,Acc_Global_Y_Roll_Std,Acc_Global_Z_Roll_Std,Vel_X_Roll_Std,Vel_Y_Roll_Std,Vel_Z_Roll_Std,Acc_Global_X_Roll_Sum,Acc_Global_Y_Roll_Sum,Acc_Global_Z_Roll_Sum,Vel_X_Roll_Sum,Vel_Y_Roll_Sum,Vel_Z_Roll_Sum,Acc_Global_X_Roll_Max,Acc_Global_Y_Roll_Max,Acc_Global_Z_Roll_Max,Vel_X_Roll_Max,Vel_Y_Roll_Max,Vel_Z_Roll_Max,Vel_X_Roll_Min,Vel_Y_Roll_Min,Vel_Z_Roll_Min,Displacement_X_Roll_Mean,Displacement_Y_Roll_Mean,Displacement_Z_Roll_Mean,Displacement_X_Roll_Std,Displacement_Y_Roll_Std,Displacement_Z_Roll_Std,Displacement_X_Roll_Sum,Displacement_Y_Roll_Sum,Displacement_Z_Roll_Sum,Displacement_X_Roll_Max,Displacement_Y_Roll_Max,Displacement_Z_Roll_Max,Displacement_X_Roll_Min,Displacement_Y_Roll_Min,Displacement_Z_Roll_Min
-136.46360778808594,5.291266918182373,22.98457336425781,-1.0059205293655396,-7.45979642868042,-7.778236865997314,2.86470890045166,-4.468506336212158,11.021050453186035,0.0,-0.9974343507049482,-7.396863857550421,-7.712617857554486,0.0,0.0,0.0,0.0,0.0,0.0,-0.02672936868490198,0.043099232557099895,20.63399351484075,,,,,,,,,,,,,,,,,,,,,,,,,,,,,,,,,,,,,,,,,,
-136.4407958984375,5.370523452758789,22.939987182617188,-1.0192760229110718,-7.412487506866455,-7.676191329956055,4.882572650909424,-4.248121738433838,9.784958839416504,0.008333333333333333,-0.9937766399312302,-7.22462153429755,-7.480750552955613,-0.008281471999426918,-0.060205179452479586,-0.06233958794129678,-6.901226666189098e-05,-0.0005017098287706632,-0.0005194965661774731,-0.046708363684272836,0.06912232710300655,20.529181331476906,5.677070617675781,12.245464324951065,-1.6026592254638672,,,,,,,,,,,,,,,,,,,,,,,,,,,,,,,,,,,,,,,
-136.4120330810547,5.446283340454102,22.90058135986328,-1.010956645011902,-7.326569557189941,-7.590566635131836,5.616292953491211,-4.295993804931641,8.96773624420166,0.016666666666666666,-0.9685457953327419,-7.015953211740195,-7.267987861113525,-0.016352686960533103,-0.1186714562169812,-0.12290615345057615,-0.00020528465799966682,-0.0014906386305788399,-0.001543714511598941,-0.033245274097410356,0.06553662773849141,20.40773354821622,10.31015396118164,10.27496337890625,0.998325347900364,,,,,,,,,,,,,,,,,,,,,,,,,,,,,,,,,,,,,,,
-136.3765106201172,5.517326354980469,22.86978912353516,-1.0297585725784302,-7.348240852355957,-7.589752674102783,6.264307498931885,-4.662559986114502,7.912276268005371,0.025,-0.9704916498293064,-6.9164601639515295,-7.141846491440203,-0.024440117375777323,-0.17630862424991062,-0.1824215408792445,-0.0004089523027978112,-0.002959877165994762,-0.0030638940189259786,-0.040843179026857086,0.07287188011966389,20.423878344879263,-2.600555419921875,0.09767532348632812,-2.256231307983372,,,,,,,,,,,,,,,,,,,,,,,,,,,,,,,,,,,,,,,
-136.3326873779297,5.582164764404297,22.843769073486328,-1.0386250019073486,-7.343411922454834,-7.613224983215332,7.2789130210876465,-4.438281536102295,6.912168025970459,0.03333333333333333,-0.9624124091012176,-6.79135876277267,-7.040869759407384,-0.032460220784954134,-0.23290328060634952,-0.2410954555409727,-0.000679454142672429,-0.004900737837714341,-0.005073022815100751,-0.025860018453325265,0.04904415141021383,20.438384690683293,0.5794715881347656,-2.8166770935058594,-1.0639715194702148,-0.016306899424138297,-0.11761770810514419,-0.12175254756241802,0.013402815756432606,0.05614050462406352,0.08006922692560407,0.012819941262652231,0.09201442951532901,0.09523440797616156,-5.104536771774292,-36.89050626754761,-38.24797248840332,-0.08153449712069148,-0.5880885405257209,-0.6087627378120901,-1.0059205293655396,-7.326569557189941,-7.589752674102783,0.0,0.0,0.0,-0.032460220784954134,-0.23290328060634952,-0.2410954555409727,-0.0002725406740263596,-0.001970592692611721,-0.0020400255823606285,0.0002758678609064937,0.001989701150309243,0.0020595761902576803,-0.001362703370131798,-0.009852963463058606,-0.010200127911803143,0.0,0.0,0.0,-0.000679454142672429,-0.004900737837714341,-0.005073022815100751
-136.2836151123047,5.635175704956055,22.823883056640625,-0.973220944404602,-7.219605445861816,-7.590741157531738,7.773037910461426,-3.985575437545776,5.4818949699401855,0.041666666666666664,-0.8806846841973326,-6.549394729911331,-6.894994059153625,-0.039799259819931904,-0.28748157002227726,-0.2985537393672529,-0.0010111146411718615,-0.007296417587899985,-0.007560970643161191,0.06619915375795103,-0.002266592937284354,20.330685607686878,14.85677719116211,2.69805908203125,7.84848690032959,-0.024266751388124678,-0.17511402210959964,-0.18146329543586862,0.02526894378562072,0.0698489491474268,0.03717611122691075,0.012515823860271986,0.08994067025145945,0.09338961582788148,-5.0718371868133545,-36.650315284729004,-38.060476779937744,-0.12133375694062339,-0.8755701105479982,-0.907316477179343,-0.973220944404602,-7.219605445861816,-7.589752674102783,-0.008281471999426918,-0.060205179452479586,-0.06233958794129678,-0.039799259819931904,-0.28748157002227726,-0.2985537393672529,-0.0004747636022607319,-0.003429876210191718,-0.0035522197109928667,0.00037787393041607814,0.002723475536968433,0.0028219182707977476,-0.0023738180113036596,-0.01714938105095859,-0.017761098554964334,-6.901226666189098e-05,-0.0005017098287706632,-0.0005194965661774731,-0.0010111146411718615,-0.007296417587899985,-0.007560970643161191
-136.24192810058594,5.681384563446045,22.809539794921875,-0.9023044109344482,-7.132891654968262,-7.491296768188477,6.887808322906494,-3.7771267890930176,4.364268779754639,0.05,-0.7947347517665131,-6.347314480820192,-6.674246365257661,-0.04642204941798618,-0.3403758573624455,-0.35417245907773337,-0.001397965052988413,-0.010132883065920365,-0.010512407802142302,0.12761216284093035,0.021944468099880692,20.192439860494915,10.405654907226562,11.933326721191406,8.509984016418457,-0.03189486687183653,-0.2311481576915928,-0.23982986966315592,0.05556895301930756,0.09482023323285207,0.047893261856070055,0.011947496935534777,0.08770063708343441,0.09150299716592633,-4.954865574836731,-36.37071943283081,-37.875582218170166,-0.15947433435918265,-1.155740788457964,-1.1991493483157796,-0.9023044109344482,-7.132891654968262,-7.491296768188477,-0.016352686960533103,-0.1186714562169812,-0.12290615345057615,-0.04642204941798618,-0.3403758573624455,-0.35417245907773337,-0.0007405541595260363,-0.0053561108576216584,-0.005550801958185832,0.000475814696016429,0.0034450514861074652,0.0035751938585674493,-0.0037027707976301817,-0.026780554288108292,-0.027754009790929162,-0.00020528465799966682,-0.0014906386305788399,-0.001543714511598941,-0.001397965052988413,-0.010132883065920365,-0.010512407802142302
-136.2109832763672,5.719853401184082,22.804628372192383,-0.855409562587738,-7.213531017303467,-7.5100603103637695,5.42198371887207,-3.9529426097869873,2.986658334732056,0.058333333333333334,-0.7339301502565995,-6.313633333173394,-6.5734328919024625,-0.052538134003457845,-0.3929894684722238,-0.40895106651025387,-0.0018357828363505617,-0.013407795303188898,-0.013920333356394417,0.16805879397194348,0.0819421603430065,20.256664675713196,-9.67672348022461,-2.2516250610351562,5.627381801605225,-0.03913195628042147,-0.28601176014264135,-0.2970388522750914,0.07982917770034215,0.09264641547477732,0.054480263669708075,0.01110943898258754,0.08552358462788419,0.0895232921003821,-4.799318492412567,-36.257680892944336,-37.7950758934021,-0.19565978140210738,-1.4300588007132067,-1.4851942613754572,-0.855409562587738,-7.132891654968262,-7.491296768188477,-0.024440117375777323,-0.17630862424991062,-0.1824215408792445,-0.052538134003457845,-0.3929894684722238,-0.40895106651025387,-0.0010666537951962154,-0.007739542192143669,-0.008026125727144928,0.00056720940866981,0.004152033875366632,0.004315211805939814,-0.005333268975981077,-0.03869771096071835,-0.04013062863572464,-0.0004089523027978112,-0.002959877165994762,-0.0030638940189259786,-0.0018357828363505617,-0.013407795303188898,-0.013920333356394417
-136.1804656982422,5.753265857696533,22.808332443237305,-0.7978482842445374,-7.291094779968262,-7.55305814743042,5.332691192626953,-4.155063629150391,1.7500284910202026,0.06666666666666667,-0.6634609968221208,-6.276530946931853,-6.497367027161876,-0.05806697564364219,-0.4452938930299893,-0.4630957917366028,-0.00231967430004758,-0.017118577745105473,-0.01777946495419944,0.22628847374451086,0.12884053502443063,20.335089358138603,-9.30765151977539,-5.159740447998047,6.907353401184082,-0.045857327933994455,-0.3398088138986571,-0.35317370244656315,0.09499738826416267,0.08045711201958285,0.051705394924068566,0.010126823866882653,0.08384888040206182,0.08766391983992754,-4.567408204078674,-36.20053482055664,-37.758381366729736,-0.22928663966997226,-1.6990440694932853,-1.7658685122328157,-0.7978482842445374,-7.132891654968262,-7.491296768188477,-0.032460220784954134,-0.23290328060634952,-0.2410954555409727,-0.05806697564364219,-0.4452938930299893,-0.4630957917366028,-0.001448798194646169,-0.010571282307965812,-0.01096923991419962,0.0006508117000051307,0.004847290246429358,0.00504178759673152,-0.007243990973230845,-0.05285641153982906,-0.054846199570998094,-0.000679454142672429,-0.004900737837714341,-0.005073022815100751,-0.00231967430004758,-0.017118577745105473,-0.01777946495419944
-136.14212036132812,5.774917125701904,22.82413673400879,-0.6699223518371582,-7.117863655090332,-7.580724239349365,6.06149435043335,-4.206600666046143,-0.1915944963693618,0.075,-0.5243045645784762,-5.990435789820782,-6.406406546062501,-0.06243618034846282,-0.4952141912784958,-0.5164825129537903,-0.002839975802951437,-0.02124536267242627,-0.022083485895481026,0.3965641561638255,0.03663795442419874,20.222567094302327,20.787734985351562,-3.3199310302734375,15.351111888885498,-0.051852519846696185,-0.3922709960330863,-0.40825111392912666,0.11464069161595264,0.07069387437739981,0.043411036698624776,0.009025996947577197,0.0822848322554715,0.08614011732137615,-4.198705554008484,-35.97498655319214,-37.72588062286377,-0.25926259923348094,-1.9613549801654315,-2.0412555696456334,-0.6699223518371582,-7.117863655090332,-7.491296768188477,-0.039799259819931904,-0.28748157002227726,-0.2985537393672529,-0.06243618034846282,-0.4952141912784958,-0.5164825129537903,-0.0018809025267019705,-0.013840207274908197,-0.014371332530275676,0.0007252822854051229,0.005530290583976604,0.00575691769728279,-0.009404512633509853,-0.06920103637454099,-0.07185666265137838,-0.0010111146411718615,-0.007296417587899985,-0.007560970643161191,-0.002839975802951437,-0.02124536267242627,-0.022083485895481026
-136.11782836914062,5.790453910827637,22.8419189453125,-0.5843510031700134,-6.964344024658203,-7.581597328186035,4.414165496826172,-3.773181915283203,-0.9438334107398988,0.08333333333333333,-0.42940254648240184,-5.727791593824633,-6.289445114380432,-0.06601453490248284,-0.5429457878937011,-0.5688945555736272,-0.003390096927138794,-0.02576991090487378,-0.026824273858594587,0.5126727230711298,-0.03983456277762,20.10853153231484,18.42235565185547,-0.10477066040039062,10.268561840057373,-0.05709557486320638,-0.4433638396073711,-0.4623192771704015,0.1320352486601976,0.12201864087228159,0.04114511620491385,0.007805574085668885,0.08023847308691355,0.08490649154328254,-3.8098356127738953,-35.719725131988525,-37.716736793518066,-0.2854778743160319,-2.2168191980368555,-2.3115963858520074,-0.5843510031700134,-6.964344024658203,-7.491296768188477,-0.04642204941798618,-0.3403758573624455,-0.35417245907773337,-0.06601453490248284,-0.5429457878937011,-0.5688945555736272,-0.0023566989838953575,-0.01753490593830296,-0.018223993173362353,0.0007895193162925061,0.00619635194968469,0.006462355492239217,-0.011783494919476787,-0.08767452969151479,-0.09111996586681177,-0.001397965052988413,-0.010132883065920365,-0.010512407802142302,-0.003390096927138794,-0.02576991090487378,-0.026824273858594587
-136.10256958007812,5.797905921936035,22.867446899414062,-0.532089352607727,-7.1273274421691895,-7.570554256439209,3.168903350830078,-3.782915353775024,-2.207818984985352,0.09166666666666666,-0.3690559626125107,-5.782524959327588,-6.16168266754929,-0.06909000125758709,-0.5911334958880976,-0.6202419111365379,-0.003965846937618686,-0.030696023370607926,-0.03199295645139907,0.5240559731602831,0.09798310123744411,20.20764261482444,-19.55801010131836,1.3251686096191406,6.271398067474365,-0.06162916523112656,-0.4935153673125015,-0.5155331675821625,0.1373595867410978,0.12216993275157274,0.029775341193348157,0.006536108517447966,0.07811260850196979,0.0835489117466786,-3.439620554447174,-35.71416091918945,-37.7959942817688,-0.3081458261556328,-2.4675768365625075,-2.5776658379108124,-0.532089352607727,-6.964344024658203,-7.5100603103637695,-0.052538134003457845,-0.3929894684722238,-0.40895106651025387,-0.06909000125758709,-0.5911334958880976,-0.6202419111365379,-0.002870275360821412,-0.02164753399924047,-0.022520102903213705,0.0008433187290718103,0.006845356666438911,0.00715683520824653,-0.01435137680410706,-0.10823766999620235,-0.11260051451606853,-0.0018357828363505617,-0.013407795303188898,-0.013920333356394417,-0.003965846937618686,-0.030696023370607926,-0.03199295645139907
-136.08709716796875,5.79545259475708,22.903583526611328,-0.5126925110816956,-7.28372859954834,-7.732446670532227,3.136513948440552,-3.738614559173584,-4.0141215324401855,0.1,-0.34225137159924524,-5.828931590595905,-6.20660623268819,-0.07194209602091413,-0.6397079258097301,-0.6719636297422729,-0.004565364404459637,-0.036026922752355674,-0.03759265336591801,0.5632371714609149,0.11226649791930987,20.42962558462172,-18.768138885498047,-19.42708969116211,2.3276209831237793,-0.06550995763461781,-0.5428590587800028,-0.5681356802285663,0.11686997672706262,0.13561886361246772,0.07289607937079409,0.005460993556692488,0.07664712455801602,0.08245802895316648,-3.0969035029411316,-35.784358501434326,-38.018380641937256,-0.32754978817308905,-2.714295293900014,-2.8406784011428314,-0.5126925110816956,-6.964344024658203,-7.55305814743042,-0.05806697564364219,-0.4452938930299893,-0.4630957917366028,-0.07194209602091413,-0.6397079258097301,-0.6719636297422729,-0.0034161916744432272,-0.02617135948907382,-0.027254566905118426,0.0008885064561523025,0.007483050403824549,0.007842690148439144,-0.017080958372216137,-0.1308567974453691,-0.13627283452559213,-0.00231967430004758,-0.017118577745105473,-0.01777946495419944,-0.004565364404459637,-0.036026922752355674,-0.03759265336591801
-136.06332397460938,5.7782158851623535,22.94573783874512,-0.4342144429683685,-7.293326377868652,-7.778014659881592,3.990890264511109,-3.027449131011963,-5.691226959228516,0.10833333333333334,-0.2572583946803707,-5.728102083111005,-6.134483610947064,-0.07408591597658389,-0.6874421098356551,-0.7230843265001651,-0.005182747037597836,-0.041755607000986135,-0.04361835608675271,0.6471190757790737,0.1166124969407958,20.461117420874206,-1.1517333984375,-5.468158721923828,9.41736817359925,-0.06871374570120616,-0.5912887021411359,-0.6201333871812786,0.08749902325355614,0.13617355890471328,0.09869905093143089,0.004639978264820559,0.07608756816384185,0.08163057533893331,-2.7332696616649628,-35.78659009933472,-38.24333715438843,-0.34356872850603076,-2.9564435107056797,-3.100666935906393,-0.4342144429683685,-6.964344024658203,-7.570554256439209,-0.06243618034846282,-0.4952141912784958,-0.5164825129537903,-0.07408591597658389,-0.6874421098356551,-0.7230843265001651,-0.003988806221953278,-0.031098765340249957,-0.03242234513162908,0.0009269176459016437,0.008116394588767685,0.008521994125003434,-0.01994403110976639,-0.15549382670124978,-0.1621117256581454,-0.002839975802951437,-0.02124536267242627,-0.022083485895481026,-0.005182747037597836,-0.041755607000986135,-0.04361835608675271
-136.03379821777344,5.750717639923096,22.98987579345703,-0.2909447848796844,-7.216281414031982,-7.85429573059082,4.726812839508057,-2.245574474334717,-6.782701015472412,0.11666666666666667,-0.10940433359351359,-5.54217314251101,-6.093083845004839,-0.07499761875652983,-0.7336268860232469,-0.7738600252085387,-0.005807727193902251,-0.04786916438451319,-0.0500671896301572,0.8181606377816873,0.0659847174070096,20.448401521177075,9.24539566040039,-9.153728485107422,17.19235897064209,-0.07122603338281955,-0.6389712410900861,-0.6716088896322284,0.11411790161292273,0.1361577912530331,0.12416164748313668,0.0036959058440914254,0.07552978959758268,0.08107703446231558,-2.354292094707489,-35.88500785827637,-38.51690864562988,-0.35613016691409777,-3.1948562054504306,-3.358044448161142,-0.2909447848796844,-6.964344024658203,-7.570554256439209,-0.06601453490248284,-0.5429457878937011,-0.5688945555736272,-0.07499761875652983,-0.7336268860232469,-0.7738600252085387,-0.0045823565001434415,-0.03642352568266734,-0.03801908587856431,0.0009570603162822516,0.008744924541283294,0.009196854456778966,-0.022911782500717206,-0.1821176284133367,-0.19009542939282156,-0.003390096927138794,-0.02576991090487378,-0.026824273858594587,-0.005807727193902251,-0.04786916438451319,-0.0500671896301572
-136.00811767578125,5.709695339202881,23.03099632263184,-0.1882545351982116,-7.072415828704834,-7.975806713104248,4.237709045410156,-0.8916571736335754,-7.582761764526367,0.125,-0.004248284911787525,-5.292251492056103,-6.096286220006678,-0.07503302113079473,-0.7777289817903811,-0.824662410375261,-0.006433002369992207,-0.05435023923276637,-0.056939376383284376,0.9793651499268786,-0.07424336393906993,20.426182457689578,17.263870239257812,-14.581317901611328,12.322829961776737,-0.07302973062848193,-0.6859278798694222,-0.7227624605925551,0.14806880825997892,0.09686952415920584,0.1499734831350601,0.0025350394753429345,0.0738701390651771,0.08075526105088149,-1.958195626735687,-35.993079662323,-38.911118030548096,-0.3651486531424097,-3.429639399347111,-3.6138123029627756,-0.1882545351982116,-7.072415828704834,-7.570554256439209,-0.06909000125758709,-0.5911334958880976,-0.6202419111365379,-0.07503302113079473,-0.7777289817903811,-0.824662410375261,-0.005190937588714124,-0.04213959134824586,-0.044042106383502276,0.0009766537686594495,0.009359424906726513,0.009869121341369842,-0.025954687943570618,-0.2106979567412293,-0.2202105319175114,-0.003965846937618686,-0.030696023370607926,-0.03199295645139907,-0.006433002369992207,-0.05435023923276637,-0.056939376383284376
-135.98800659179688,5.654402732849121,23.06379508972168,-0.0537991598248481,-7.011759281158447,-8.00127124786377,3.7453773021698,1.085415959358215,-8.119634628295898,0.13333333333333333,0.13064645089762242,-5.128207569847106,-6.003251599064225,-0.07394430070664787,-0.8204640448724403,-0.8746895070341295,-0.00704920487588094,-0.06118743960670337,-0.06422845560856878,1.1163982906640288,-0.08606022772355217,20.38989851757603,7.278785705566406,-3.055744171142578,16.13464504480362,-0.07400059051829408,-0.7317939896662906,-0.7736519797720733,0.18463122852202932,0.12717800336948315,0.1183667109056045,0.0012557693707387896,0.0714539958677312,0.08016903597659734,-1.4799054339528082,-35.877511501312256,-39.341835021972656,-0.3700029525914704,-3.6589699483314533,-3.8682598988603667,-0.0537991598248481,-7.011759281158447,-7.732446670532227,-0.07194209602091413,-0.6397079258097301,-0.6719636297422729,-0.07503302113079473,-0.8204640448724403,-0.8746895070341295,-0.005807609176366574,-0.04823787459546495,-0.05048920621493622,0.0009831456285071306,0.00995383494865733,0.010536596034421999,-0.029038045881832873,-0.24118937297732473,-0.2524460310746811,-0.004565364404459637,-0.036026922752355674,-0.03759265336591801,-0.00704920487588094,-0.06118743960670337,-0.06422845560856878
-135.97975158691406,5.585775375366211,23.089967727661133,-0.0186177678406238,-7.115638732910156,-7.916429042816162,2.330883026123047,2.7255983352661133,-8.601312637329102,0.14166666666666666,0.16482736905648848,-5.129258608132597,-5.801465372281063,-0.0725707392978438,-0.8632078666068785,-0.9230350518031384,-0.007653961036696305,-0.06838083849509402,-0.07192041437359493,1.0861665186394753,0.04517674770304726,20.398706783350242,-12.465534210205078,10.18106460571289,4.221767038106916,-0.07412631917368002,-0.7764939778257205,-0.8238662641842465,0.1713908990298946,0.11282381436329011,0.09097861386089706,0.0010044729081583829,0.06932173773528523,0.07917655461086603,-0.9858306907117363,-35.70942163467407,-39.52581739425659,-0.3706315958684001,-3.8824698891286022,-4.1193313209212326,-0.0186177678406238,-7.011759281158447,-7.778014659881592,-0.0725707392978438,-0.6874421098356551,-0.7230843265001651,-0.07503302113079473,-0.8632078666068785,-0.9230350518031384,-0.006425328502813908,-0.05470865774401261,-0.0573547584164716,0.000977785584227304,0.010530809533338742,0.01119571342705092,-0.03212664251406954,-0.27354328872006306,-0.286773792082358,-0.005182747037597836,-0.041755607000986135,-0.04361835608675271,-0.007653961036696305,-0.06838083849509402,-0.07192041437359493
-135.98370361328125,5.514063835144043,23.11093521118164,-0.0404997356235981,-7.176321506500244,-7.844635486602783,1.002605438232422,3.4742772579193115,-8.471038818359375,0.15,0.14183616579462907,-5.086646370562529,-5.615093489047191,-0.07138877124955523,-0.9055965863615663,-0.9698274975451983,-0.00824886746377593,-0.07592747671477373,-0.08000231018647158,1.0160949241886015,0.11816213458280246,20.392680441452452,-7.281932830810547,8.615226745605469,-2.625836133956916,-0.07358689022827429,-0.8201248731309025,-0.8732148983932533,0.11709992504530367,0.08128660546257846,0.07020965298632413,0.00158693742596654,0.06789879693915737,0.07753539738340509,-0.592115983366966,-35.592416763305664,-39.59243822097778,-0.36793445114137147,-4.100624365654513,-4.366074491966266,-0.0186177678406238,-7.011759281158447,-7.844635486602783,-0.07138877124955523,-0.7336268860232469,-0.7738600252085387,-0.07503302113079473,-0.9055965863615663,-0.9698274975451983,-0.007038552588049527,-0.06154303168677013,-0.06463154923641537,0.0009650550950300119,0.011096229277609707,0.011841034853291181,-0.03519276294024763,-0.30771515843385067,-0.3231577461820769,-0.005807727193902251,-0.04786916438451319,-0.0500671896301572,-0.00824886746377593,-0.07592747671477373,-0.08000231018647158
-135.9984130859375,5.446078777313232,23.134151458740234,-0.007974499836564,-7.114593982696533,-7.705875873565674,-0.3808324635028839,2.9163472652435303,-8.292839050292969,0.15833333333333333,0.17316676073014856,-4.922561088591036,-5.364559269259582,-0.06994571491013732,-0.9466179287664915,-1.0145321581223614,-0.008831748421360409,-0.08381595945449449,-0.08845674483749126,1.0003277891401148,0.17136283904969118,20.24877450670038,7.4073028564453125,16.651153564453125,3.9030282944440917,-0.07257650945899578,-0.8627230816795516,-0.9213493249760176,0.0729217895671772,0.06085361238870757,0.11873821408470744,0.0020147665992658994,0.06687028674179739,0.07510245227212274,-0.3091456983238456,-35.490729331970215,-39.44401836395264,-0.36288254729497893,-4.313615408397758,-4.606746624880088,-0.007974499836564,-7.011759281158447,-7.705875873565674,-0.06994571491013732,-0.7777289817903811,-0.824662410375261,-0.07503302113079473,-0.9466179287664915,-1.0145321581223614,-0.007643356833541158,-0.0687323907007664,-0.07230946027788218,0.0009482885392479105,0.01165310544351827,0.012466035962497837,-0.03821678416770579,-0.343661953503832,-0.36154730138941094,-0.006433002369992207,-0.05435023923276637,-0.056939376383284376,-0.008831748421360409,-0.08381595945449449,-0.08845674483749126
-136.02020263671875,5.390069961547852,23.156475067138672,-0.0061476053670048,-7.224312782287598,-7.683846950531006,-1.1472872495651243,2.003455877304077,-7.272830009460449,0.16666666666666666,0.17351434918662206,-4.930440586319156,-5.233119027235515,-0.0684997620002488,-0.9877049336524845,-1.0581414833493241,-0.009402579771362482,-0.09204683390159853,-0.09727459053206897,0.9591386110518851,0.26100903109520757,20.309722107705355,-13.166255950927734,2.6434707641601562,0.21922733634710395,-0.0712698576328866,-0.9047182720519722,-0.9680451395708303,0.020945258545639944,0.07977181126199683,0.1358166800500533,0.002138098633915953,0.06607765740069675,0.072496125729576,-0.1270387684926388,-35.64262628555298,-39.152058601379395,-0.356349288164433,-4.523591360259861,-4.840225697854152,-0.0061476053670048,-7.011759281158447,-7.683846950531006,-0.0684997620002488,-0.8204640448724403,-0.8746895070341295,-0.07394430070664787,-0.9877049336524845,-1.0581414833493241,-0.008237272313815214,-0.07627170963453282,-0.08037650310763911,0.0009304883185260514,0.012203378598794964,0.013069435336588112,-0.04118636156907607,-0.3813585481726641,-0.40188251553819554,-0.00704920487588094,-0.06118743960670337,-0.06422845560856878,-0.009402579771362482,-0.09204683390159853,-0.09727459053206897
-136.031982421875,5.342580795288086,23.18221664428711,-0.1268375813961029,-7.254166126251221,-7.7293829917907715,-0.053508136421442,0.9412845969200134,-6.799861907958984,0.175,0.05235540349147835,-4.858198888299978,-5.1700353204253,-0.06806346697115315,-1.0281899243883177,-1.101225111019535,-0.009969775329455425,-0.10061508327150118,-0.10645146645723176,0.8482725571966389,0.2053552986320843,20.375066883987074,-3.5824012756347656,-5.464324951171875,-14.482797123491773,-0.07009369088578767,-0.9462634479551477,-1.0133522603679115,0.050422790536573996,0.06295491767301845,0.10001732771494062,0.0019037671410500996,0.06515652914170174,0.07032195190219351,-0.2000771900638936,-35.88503313064575,-38.8801703453064,-0.3504684544289383,-4.731317239775739,-5.066761301839557,-0.0061476053670048,-7.114593982696533,-7.683846950531006,-0.06806346697115315,-0.8632078666068785,-0.9230350518031384,-0.0725707392978438,-1.0281899243883177,-1.101225111019535,-0.00882138640453011,-0.08415723836749239,-0.08882110527737169,0.0009147882474810789,0.012746044657726425,0.013654928658676124,-0.04410693202265055,-0.42078619183746196,-0.44410552638685846,-0.007653961036696305,-0.06838083849509402,-0.07192041437359493,-0.009969775329455425,-0.10061508327150118,-0.10645146645723176
-136.0374298095703,5.302112102508545,23.206729888916016,-0.1547138690948486,-7.0083770751953125,-7.747107982635498,0.7986646890640259,0.4771036207675934,-6.160096168518066,0.18333333333333332,0.025262555408876675,-4.513063140489253,-5.079593042082327,-0.06785294567607918,-1.0657987838923948,-1.1435550530368876,-0.010535216543422751,-0.1094967398039378,-0.11598109189920583,0.8765741053007091,0.013106585722762947,20.221071691202354,29.494686126708984,-2.1269989013671875,-3.345154523849484,-0.06915013216143473,-0.9867816314122508,-1.0574562606146614,0.06921573388788278,0.09775246943649146,0.06206027092490024,0.001494236614212863,0.06356757064413422,0.06864849332720036,-0.3361732913181184,-35.77777147293091,-38.71084928512573,-0.34575066080717365,-4.933908157061254,-5.287281303073307,-0.0061476053670048,-7.0083770751953125,-7.683846950531006,-0.06785294567607918,-0.9055965863615663,-0.9698274975451983,-0.07138877124955523,-1.0657987838923948,-1.1435550530368876,-0.009397637505875401,-0.09238041862926115,-0.09763324078249389,0.0009029611352966123,0.013275340764864724,0.01422665777830627,-0.046988187529377,-0.46190209314630576,-0.4881662039124694,-0.00824886746377593,-0.07592747671477373,-0.08000231018647158,-0.010535216543422751,-0.1094967398039378,-0.11598109189920583
-136.052978515625,5.271788597106934,23.2176513671875,-0.2016656249761581,-6.9096760749816895,-7.7964959144592285,-0.3391836881637573,0.6881648302078247,-4.09622859954834,0.19166666666666665,-0.02028601060905169,-4.318827822987659,-5.0212328170660765,-0.06802199576448795,-1.1017890157506254,-1.1853986598457715,-0.011102066508126817,-0.11867831493519301,-0.12585941406458725,0.8661768778013038,-0.10272248250084824,20.193102943609976,11.844120025634766,-5.926551818847656,-5.634210705757138,-0.06847677706442128,-1.026020117290063,-1.100570493074776,0.08849478969844901,0.14493709469885283,0.04299575705649588,0.000855149631190702,0.06144252841669352,0.06754023753508583,-0.4973391806706784,-35.51112604141235,-38.66270971298218,-0.3423838853221064,-5.130100586450315,-5.50285246537388,-0.0061476053670048,-6.9096760749816895,-7.683846950531006,-0.06785294567607918,-0.9466179287664915,-1.0145321581223614,-0.06994571491013732,-1.1017890157506254,-1.1853986598457715,-0.009968277314745578,-0.10093058627334502,-0.106804661558117,0.0008970245125104117,0.013786695656134142,0.014789214950560403,-0.049841386573727886,-0.5046529313667251,-0.534023307790585,-0.008831748421360409,-0.08381595945449449,-0.08845674483749126,-0.011102066508126817,-0.11867831493519301,-0.12585941406458725
-136.0771484375,5.252978801727295,23.21731758117676,-0.2047102302312851,-6.838783264160156,-7.853318691253662,-1.1746689081192017,0.6649071574211121,-2.212352752685547,0.2,-0.02152242752394104,-4.154708048050682,-4.970396109723719,-0.06820134932718745,-1.1364115828177144,-1.2268186274268025,-0.011670411085853379,-0.12814841145867398,-0.13608290262647726,0.8935164747949795,-0.18467464734392852,20.185596409981013,8.507137298583984,-6.818733215332031,-0.36535263061524104,-0.0681279039478313,-1.0639788481003074,-1.1430277869356642,0.08106980421331537,0.1857830768191126,0.06504346120200644,0.00024219999657680664,0.058689818299965314,0.06665137298139019,-0.6940749110653994,-35.23531532287598,-38.810152530670166,-0.3406395197391565,-5.319894240501537,-5.715138934678321,-0.0061476053670048,-6.838783264160156,-7.683846950531006,-0.06785294567607918,-0.9877049336524845,-1.0581414833493241,-0.0684997620002488,-1.1364115828177144,-1.2268186274268025,-0.01053600984764417,-0.1097970766741809,-0.11632989311591421,0.0008961824882337367,0.014275137521137123,0.015344401962419695,-0.05268004923822085,-0.5489853833709045,-0.5816494655795711,-0.009402579771362482,-0.09204683390159853,-0.09727459053206897,-0.011670411085853379,-0.12814841145867398,-0.13608290262647726
-136.11129760742188,5.247775077819824,23.19674301147461,-0.3188240826129913,-6.767232418060303,-7.973935604095459,-2.222444534301758,1.128780722618103,0.7077084183692932,0.20833333333333334,-0.13285996334334943,-3.991991618091447,-4.982843489884698,-0.06930851568838203,-1.1696781796351432,-1.2683423231758417,-0.012247982049923228,-0.13789572962230018,-0.14665242198627595,0.8421048624150123,-0.3473289570381938,20.233576852993473,8.586101531982422,-14.474029541015625,-13.693662285804741,-0.06828965468545796,-1.100373497296839,-1.1850679549009677,0.07338014050769463,0.18918551936980427,0.09859440167992538,0.0005829649471734756,0.05592353104766406,0.06601286224100816,-1.006751388311386,-34.77823495864868,-39.10024118423462,-0.3414482734272898,-5.501867486484196,-5.925339774504838,-0.1268375813961029,-6.767232418060303,-7.7293829917907715,-0.06785294567607918,-1.0281899243883177,-1.101225111019535,-0.06930851568838203,-1.1696781796351432,-1.2683423231758417,-0.01110509030335632,-0.11896685581832123,-0.1262054594067556,0.0008999297843520608,0.014740735533218759,0.015894337348921192,-0.0555254515167816,-0.5948342790916061,-0.631027297033778,-0.009969775329455425,-0.10061508327150118,-0.10645146645723176,-0.012247982049923228,-0.13789572962230018,-0.14665242198627595
-136.1588592529297,5.25860071182251,23.1577262878418,-0.4081809818744659,-6.8354973793029785,-7.963263034820557,-3.5512855052948,1.3000760078430176,3.590116500854492,0.21666666666666667,-0.2177525096523686,-3.9699634987864716,-4.864067992913648,-0.0711231199354851,-1.2027612087916972,-1.3088762231167888,-0.012840674716052271,-0.14791873969556432,-0.15755972384558253,0.7395707734351681,-0.32064111933519057,20.28160057688572,-8.191795349121094,1.2807083129882812,-10.722827911376953,-0.06890158527832434,-1.135287754177515,-1.2265981773204184,0.10360327768128895,0.09141962961187834,0.100291750611034,0.001366058354089591,0.054054402917388715,0.06539468606551746,-1.288094788789749,-34.35956621170044,-39.334121227264404,-0.3445079263916217,-5.676438770887575,-6.132990886602093,-0.1547138690948486,-6.767232418060303,-7.747107982635498,-0.06785294567607918,-1.0657987838923948,-1.1435550530368876,-0.0711231199354851,-1.2027612087916972,-1.3088762231167888,-0.011679270180675688,-0.12842758710313387,-0.13642711088442577,0.0009102739935169113,0.015190901705092925,0.01643912030371843,-0.05839635090337844,-0.6421379355156693,-0.6821355544221288,-0.010535216543422751,-0.1094967398039378,-0.11598109189920583,-0.012840674716052271,-0.14791873969556432,-0.15755972384558253
-136.2197723388672,5.290583610534668,23.106765747070312,-0.5004402995109558,-6.752243995666504,-7.78373384475708,-5.100588321685791,0.420163094997406,6.419887542724609,0.225,-0.3040581695602904,-3.7973833586779477,-4.579036962066373,-0.07365693801515419,-1.2344060701140134,-1.3470348644673418,-0.013454482532845223,-0.15820545694651444,-0.16878501438281038,0.6148091466881306,-0.292600100024011,20.103985959336658,9.990406036376953,21.543502807617188,-11.071118116378791,-0.07006238374613934,-1.1690092114218387,-1.2672941396065092,0.129809427994986,0.063260798978503,0.09019074413721953,0.002358014574222446,0.052434611823725434,0.06409736392908755,-1.633821219205856,-34.10343313217163,-39.370747089385986,-0.35031191873069667,-5.845046057109194,-6.336470698032546,-0.2016656249761581,-6.752243995666504,-7.78373384475708,-0.06802199576448795,-1.1017890157506254,-1.1853986598457715,-0.07365693801515419,-1.2344060701140134,-1.3470348644673418,-0.012263123378560182,-0.1381693305316492,-0.14698789538114668,0.0009290441808758008,0.015627625429539094,0.016972934969948502,-0.06131561689280091,-0.690846652658246,-0.7349394769057334,-0.011102066508126817,-0.11867831493519301,-0.12585941406458725,-0.013454482532845223,-0.15820545694651444,-0.16878501438281038
-136.31008911132812,5.355355262756348,23.052513122558597,-0.6975027918815613,-6.932265758514404,-7.549753189086914,-8.499188423156738,-2.131284236907959,9.390653610229492,0.23333333333333334,-0.49278179585001713,-3.888096159766884,-4.244020357940421,-0.077763452980571,-1.2668068714454042,-1.3824017007835119,-0.014102511307683314,-0.16876218087522615,-0.1803050285560063,0.3203095913770184,-0.0836407169282348,20.07800846822915,-21.602611541748047,28.077678680419922,-23.647499084472656,-0.07201067518935596,-1.2020127825607942,-1.3066947477940574,0.18710188249303455,0.0714780329054883,0.17289009042419373,0.003821158771507307,0.05147135885326712,0.06167400112236131,-2.1296583861112595,-34.126022815704346,-39.12400436401367,-0.3600533759467798,-6.010063912803972,-6.533473738970287,-0.2047102302312851,-6.752243995666504,-7.549753189086914,-0.06820134932718745,-1.1364115828177144,-1.2268186274268025,-0.077763452980571,-1.2668068714454042,-1.3824017007835119,-0.012863212338471482,-0.14818610371965582,-0.1578770182794305,0.0009601111209728504,0.016056422265928856,0.01748624987492952,-0.06431606169235742,-0.7409305185982791,-0.7893850913971524,-0.011670411085853379,-0.12814841145867398,-0.13608290262647726,-0.014102511307683314,-0.16876218087522615,-0.1803050285560063
-136.40989685058594,5.452429294586182,23.00541114807129,-1.0147076845169067,-7.176642894744873,-7.4294514656066895,-9.797536849975586,-5.573082447052002,11.480814933776855,0.24166666666666667,-0.79738526994438,-4.04042043972892,-4.0266139937709395,-0.08440833023010749,-1.3004770417764786,-1.4159568173982697,-0.014805914059600876,-0.1795994895566968,-0.19210466870099188,-0.05582556243116164,0.058225266020847544,20.189021019753795,-29.32525634765625,14.436206817626953,-38.064587116241455,-0.07525207136993997,-1.2348258743525473,-1.3445223857883508,0.2768246469775452,0.17387576783124398,0.24449904717251728,0.006022098023447324,0.05149126406318639,0.05834827316617646,-2.939655840396881,-34.46388244628906,-38.7001371383667,-0.37626035684969983,-6.174129371762737,-6.722611928941754,-0.3188240826129913,-6.752243995666504,-7.4294514656066895,-0.06930851568838203,-1.1696781796351432,-1.2683423231758417,-0.08440833023010749,-1.3004770417764786,-1.4159568173982697,-0.013490312933220982,-0.15847631933926037,-0.16908137149433342,0.0010089961382258696,0.016485476904221565,0.01797176021024843,-0.06745156466610491,-0.7923815966963019,-0.8454068574716671,-0.012247982049923228,-0.13789572962230018,-0.14665242198627595,-0.014805914059600876,-0.1795994895566968,-0.19210466870099188
-136.5032501220703,5.5856099128723145,22.956836700439453,-1.1688424348831177,-7.440837383270264,-7.479014873504639,-8.905265808105469,-8.586264610290527,14.550862312316896,0.25,-0.9350545006003415,-4.209133727070988,-3.9805814991904294,-0.09220045106844367,-1.3355531561687368,-1.4491283298915234,-0.015574251151837908,-0.19072909919143627,-0.20418073811675458,-0.22331540254979063,0.1766677893324669,20.420694407208032,-31.703338623046875,-5.947608947753906,-18.496170043945312,-0.0798304584459523,-1.268000869659266,-1.380679587131487,0.326749360102312,0.28053156259920103,0.2255794476431269,0.008546581737629424,0.05245060225197871,0.0552728900165548,-3.7896741926670074,-35.13748741149902,-38.20521640777588,-0.39915229222976145,-6.34000434829633,-6.903397935657435,-0.4081809818744659,-6.752243995666504,-7.4294514656066895,-0.0711231199354851,-1.2027612087916972,-1.3088762231167888,-0.09220045106844367,-1.3355531561687368,-1.4491283298915234,-0.014155566753603918,-0.1690429932530876,-0.18058703472042914,0.0010792233405979169,0.016922558480677377,0.018431921970572945,-0.07077783376801959,-0.845214966265438,-0.9029351736021457,-0.012840674716052271,-0.14791873969556432,-0.15755972384558253,-0.015574251151837908,-0.19072909919143627,-0.20418073811675458
-136.56944274902344,5.75026798248291,22.911056518554688,-1.24204683303833,-7.363853931427002,-7.418570518493652,-5.753766059875488,-11.607721328735352,16.93050193786621,0.2583333333333333,-0.9900207695074461,-4.0359833187739005,-3.825534878529698,-0.10045062414767239,-1.3691863504918527,-1.4810077872126042,-0.016411339686401846,-0.20213898544553505,-0.21652246967685962,-0.2702948385675249,0.1545778019275937,20.331751755297766,9.238014221191406,7.253322601318359,-8.784527778625488,-0.08569595928838974,-1.301285897999297,-1.4151058999506503,0.31623993609970225,0.28949582144721264,0.1498957322918431,0.010834311544340055,0.053495526283989715,0.05292574765462358,-4.623540043830872,-35.66584396362305,-37.660523891448975,-0.4284797964419487,-6.506429489996485,-7.075529499753252,-0.5004402995109558,-6.752243995666504,-7.418570518493652,-0.07365693801515419,-1.2344060701140134,-1.3470348644673418,-0.10045062414767239,-1.3691863504918527,-1.4810077872126042,-0.014869699747673834,-0.17988704240308173,-0.19237958388668455,0.001169244720257059,0.017368329965272634,0.018872733971959505,-0.07434849873836917,-0.8994352120154087,-0.9618979194334227,-0.013454482532845223,-0.15820545694651444,-0.16878501438281038,-0.016411339686401846,-0.20213898544553505,-0.21652246967685962
-136.6336212158203,5.950623989105225,22.858911514282227,-1.2873810529708862,-7.264777183532715,-7.390125274658203,-5.331401348114014,-14.194598197937012,20.373046875,0.26666666666666666,-1.0162775680924399,-3.84312689759383,-3.704133291763192,-0.10891960388177606,-1.4012124079718014,-1.511875564643964,-0.017319003052083313,-0.21381575551196672,-0.22912143271555932,-0.27045468804398437,0.11043122868580668,20.248531902643876,11.889209747314453,3.4134292602539062,-5.440106391906738,-0.09274849246171411,-1.3346471655708547,-1.4480740399859748,0.238591851664197,0.19679325212393967,0.062710392492893,0.012401993194015037,0.05337277039141477,0.05123658337883743,-5.410480797290802,-36.17837715148926,-37.2669153213501,-0.4637424623085706,-6.673235827854274,-7.240370199929874,-0.6975027918815613,-6.932265758514404,-7.390125274658203,-0.077763452980571,-1.2668068714454042,-1.3824017007835119,-0.10891960388177606,-1.4012124079718014,-1.511875564643964,-0.015642603851521452,-0.1910091021161722,-0.20444686755323435,0.0012725835931793957,0.01781292302751849,0.019299504010150462,-0.07821301925760726,-0.955045510580861,-1.0222343377661718,-0.014102511307683314,-0.16876218087522615,-0.1803050285560063,-0.017319003052083313,-0.21381575551196672,-0.22912143271555932
-136.69448852539062,6.186005115509033,22.800701141357425,-1.3223575353622437,-7.607746124267578,-7.474143981933594,-4.919678211212158,-16.803436279296875,23.806718826293945,0.275,-1.031667436718189,-4.09114303983604,-3.695611493192594,-0.1175168325210943,-1.4353052666371018,-1.5426723270872358,-0.0182983099897591,-0.22577663273394255,-0.2419770354412863,-0.3120977684628453,0.31331693886450307,20.5474897571105,-41.156272888183594,-10.082244873046875,-4.197177886962891,-0.10069916836981878,-1.3683468446091944,-1.4801281652467195,0.12189038825882964,0.1658574416493217,0.03785114796868732,0.013115742114008283,0.053023618425703606,0.049998487378014524,-6.035335540771484,-36.85385751724243,-37.19130611419678,-0.5034958418490939,-6.841734223045972,-7.400640826233597,-1.0147076845169067,-7.176642894744873,-7.390125274658203,-0.08440833023010749,-1.3004770417764786,-1.4159568173982697,-0.1175168325210943,-1.4353052666371018,-1.5426723270872358,-0.016481763587936606,-0.20241199248791547,-0.21678126893029032,0.0013818303748563934,0.018254636695535457,0.019715991257333067,-0.08240881793968304,-1.0120599624395774,-1.0839063446514516,-0.014805914059600876,-0.1795994895566968,-0.19210466870099188,-0.0182983099897591,-0.22577663273394255,-0.2419770354412863
-136.73609924316406,6.450085163116455,22.741363525390625,-1.3239065408706665,-7.687193393707275,-7.459186553955078,-2.477744102478028,-19.218605041503903,26.212669372558597,0.2833333333333333,-1.0134948474244938,-4.07297079058174,-3.588414613431115,-0.1259626229162984,-1.4692466898919496,-1.5725757821991617,-0.019347998514061587,-0.2380203551497088,-0.2550818336262793,-0.2923864973641402,0.4040038748043658,20.591299822063355,-9.533672332763672,1.794891357421875,-0.1858806610107422,-0.10901002690705694,-1.4021007742322884,-1.5114519582068977,0.06511064740277213,0.17344977466216674,0.03845211364208955,0.013375253689206508,0.052734823078177735,0.0487906111070461,-6.344534397125244,-37.364408016204834,-37.221041202545166,-0.5450501345352847,-7.0105038711614425,-7.557259791034489,-1.1688424348831177,-7.264777183532715,-7.390125274658203,-0.09220045106844367,-1.3355531561687368,-1.4491283298915234,-0.1259626229162984,-1.4692466898919496,-1.5725757821991617,-0.017390180478828753,-0.2140961656065179,-0.22937670191534779,0.0014931966976363062,0.018694068161341577,0.02012247028688691,-0.08695090239414376,-1.0704808280325895,-1.146883509576739,-0.015574251151837908,-0.19072909919143627,-0.20418073811675458,-0.019347998514061587,-0.2380203551497088,-0.2550818336262793
-136.75767517089844,6.739470481872559,22.672143936157227,-1.3906430006027222,-7.650478839874268,-7.5956950187683105,0.0131273102015256,-20.664844512939453,29.17450714111328,0.2916666666666667,-1.0601084726417531,-3.939198243071356,-3.6325418273319663,-0.134796860188313,-1.5020733419175443,-1.6028469640935947,-0.02047130568229753,-0.25053763299902165,-0.2684388916603926,-0.24997695397158326,0.2958989013658636,20.673160341966994,4.4057464599609375,-16.38101577758789,-8.00837516784668,-0.11752930873103082,-1.4354048113820501,-1.5421956850473122,0.05460145961424725,0.18845645099217873,0.07894325683886974,0.013556343181535683,0.05278252700381577,0.04812749651509624,-6.566334962844849,-37.57404947280884,-37.33772134780884,-0.5876465436551541,-7.17702405691025,-7.7109784252365605,-1.24204683303833,-7.264777183532715,-7.390125274658203,-0.10045062414767239,-1.3691863504918527,-1.4810077872126042,-0.134796860188313,-1.5020733419175443,-1.6028469640935947,-0.018369591384920676,-0.22605787236803493,-0.24222833262407542,0.00160608608854678,0.019133879293761927,0.02052346984769444,-0.09184795692460337,-1.1302893618401746,-1.211141663120377,-0.016411339686401846,-0.20213898544553505,-0.21652246967685962,-0.02047130568229753,-0.25053763299902165,-0.2684388916603926
-136.7636260986328,7.046834468841553,22.5928897857666,-1.4328176975250244,-7.578420162200928,-7.665125846862793,2.154326200485229,-21.399871826171875,31.47802352905273,0.3,-1.0814203005444143,-3.7719191329083968,-3.608741388058765,-0.14380869602618312,-1.5335060013584476,-1.6329198089940844,-0.021669711482515723,-0.2633168496770087,-0.2820465567353433,-0.19626226657810775,0.2112626086569181,20.679978021612538,8.647041320800781,-8.33169937133789,-5.0609636306762695,-0.12620092310673298,-1.4682687415553688,-1.572578089403608,0.05887833419973944,0.16890394130077668,0.1111421349072298,0.013766245057464146,0.052399308219596236,0.04779246550287405,-6.757105827331543,-37.788615703582764,-37.58427667617798,-0.6310046155336648,-7.341343707776844,-7.8628904470180405,-1.2873810529708862,-7.264777183532715,-7.390125274658203,-0.10891960388177606,-1.4012124079718014,-1.511875564643964,-0.14380869602618312,-1.5335060013584476,-1.6329198089940844,-0.01942126574414345,-0.23829344521432966,-0.25533315003577217,0.001720755520829418,0.01957034345270521,0.020921697128229413,-0.09710632872071724,-1.1914672260716483,-1.2766657501788607,-0.017319003052083313,-0.21381575551196672,-0.22912143271555932,-0.021669711482515723,-0.2633168496770087,-0.2820465567353433
-136.7700653076172,7.373016834259033,22.505786895751957,-1.4911247491836548,-7.407713890075684,-7.568008422851562,2.1870875358581543,-22.44196891784668,33.73715591430664,0.30833333333333335,-1.1182023723498826,-3.508947455603148,-3.4195233008874206,-0.1531270491290988,-1.5627472301551406,-1.6614158365014795,-0.022945770225258212,-0.27633974326163485,-0.2958916887061889,-0.19276172876046005,0.15155894859664154,20.501693148618976,20.484752655029297,11.654090881347763,-6.9968461990356445,-0.1350424121561975,-1.5005757059920368,-1.6024861437751112,0.07242287190228625,0.10806644550894935,0.08607837103972252,0.014085015417874764,0.05048188582658866,0.04709397321091051,-6.9608495235443115,-37.93155241012573,-37.76215982437134,-0.6752120607809875,-7.502878529960184,-8.012430718875557,-1.3223575353622437,-7.407713890075684,-7.459186553955078,-0.1175168325210943,-1.4353052666371018,-1.5426723270872358,-0.1531270491290988,-1.5627472301551406,-1.6614158365014795,-0.02054661917877843,-0.2507982427642633,-0.26868720123389805,0.0018381049954100878,0.01999066697575678,0.021314063198364812,-0.10273309589389215,-1.2539912138213165,-1.3434360061694903,-0.0182983099897591,-0.22577663273394255,-0.2419770354412863,-0.022945770225258212,-0.27633974326163485,-0.2958916887061889
-136.7842559814453,7.718826770782471,22.408092498779297,-1.6677682399749756,-7.557523250579834,-7.460143566131592,1.5624581575393677,-23.28066635131836,36.22208786010742,0.31666666666666665,-1.2715305343966956,-3.567552280247929,-3.222177050450439,-0.16372313691573792,-1.59247683249054,-1.6882673119218998,-0.024310129699556027,-0.2896103835323893,-0.30996058297220475,-0.36247382670524714,0.2826268783472078,20.549650151900106,-17.977123260498047,12.943782806396378,-21.197218894958496,-0.14428367303512624,-1.5320100191627244,-1.6316051407420442,0.13057493443780793,0.10790988961560047,0.08942438395713243,0.014849109024712195,0.04857645973611684,0.045859855732479866,-7.3062602281570435,-37.88132953643799,-37.748159408569336,-0.7214183651756312,-7.660050095813622,-8.158025703710221,-1.3239065408706665,-7.407713890075684,-7.459186553955078,-0.1259626229162984,-1.4692466898919496,-1.5725757821991617,-0.16372313691573792,-1.59247683249054,-1.6882673119218998,-0.021748983120737815,-0.26356499292395263,-0.28228391074008174,0.0019618385434688828,0.020395212789023537,0.021695988664756707,-0.10874491560368908,-1.3178249646197633,-1.4114195537004088,-0.019347998514061587,-0.2380203551497088,-0.2550818336262793,-0.024310129699556027,-0.2896103835323893,-0.30996058297220475
-136.79345703125,8.087493896484375,22.31829261779785,-1.8439111709594729,-7.63499641418457,-7.293291568756103,2.025410890579224,-25.962970733642575,37.44068908691406,0.325,-1.4215894356763623,-3.552781599975094,-2.9690315523924946,-0.17556971554637427,-1.6220833458236659,-1.7130092415251705,-0.02577321066244248,-0.3031277447475865,-0.3242356599849145,-0.5338311422990724,0.39903645098739887,20.507713530478572,-9.29677963256836,20.0222396850587,-21.137151718139677,-0.15420509156114143,-1.5625773503490676,-1.6596918326072458,0.18820368584983146,0.09640751704371023,0.14492467983016766,0.016069902037881167,0.04727803336994202,0.043618678985862185,-7.82626485824585,-37.82913255691528,-37.58226442337036,-0.7710254578057071,-7.812886751745339,-8.29845916303623,-1.3906430006027222,-7.407713890075684,-7.293291568756103,-0.134796860188313,-1.5020733419175443,-1.6028469640935947,-0.17556971554637427,-1.6220833458236659,-1.7130092415251705,-0.023034025550413995,-0.27658647084352816,-0.2961146760118088,0.0020957249269726638,0.0207891028884687,0.02205906628777056,-0.11517012775206997,-1.3829323542176408,-1.480573380059044,-0.02047130568229753,-0.25053763299902165,-0.2684388916603926,-0.02577321066244248,-0.3031277447475865,-0.3242356599849145
-136.78662109375,8.482043266296387,22.241107940673828,-1.8974428176879885,-7.796089172363281,-7.14766263961792,3.8784897327423096,-29.231908798217773,38.42804336547852,0.3333333333333333,-1.4473310195919118,-3.620507283822584,-2.7405910435994265,-0.18763080737630686,-1.6522542398555207,-1.7358475002218323,-0.027336800723911703,-0.31689653007971585,-0.3387010558200964,-0.5952342196880095,0.607639509140496,20.521902132220468,-19.331130981445312,17.475471496581925,-6.423797607421875,-0.16477188099874018,-1.592613529936663,-1.6862919398328935,0.2062612120423815,0.14034959913313866,0.20832245304745775,0.017430439206102964,0.046933993042082095,0.040745781184363596,-8.333064675331116,-37.9747428894043,-37.13423204421997,-0.8238594049937009,-7.963067649683315,-8.431459699164467,-1.4328176975250244,-7.407713890075684,-7.14766263961792,-0.14380869602618312,-1.5335060013584476,-1.6329198089940844,-0.18763080737630686,-1.6522542398555207,-1.7358475002218323,-0.02440712455873683,-0.28985825025966705,-0.3101671088437496,0.00224095897530956,0.02118021171902965,0.022398136000466775,-0.12203562279368414,-1.4492912512983351,-1.550835544218748,-0.021669711482515723,-0.2633168496770087,-0.2820465567353433,-0.027336800723911703,-0.31689653007971585,-0.3387010558200964
-136.75567626953125,8.900884628295898,22.1834716796875,-2.0370516777038574,-7.76295804977417,-7.093662738800049,6.407223701477051,-32.96657180786133,38.77895736694336,0.3416666666666667,-1.5577671429495084,-3.4938309444693365,-2.6062823027083315,-0.20061220023421944,-1.6813694977260984,-1.7575665194110683,-0.029008569059196864,-0.33090794256076667,-0.3533474434818553,-0.6613565076572622,0.5887648975210469,20.484694924786204,3.9757347106933594,6.479988098144531,-16.753063201904272,-0.17613258184034747,-1.6221862292101932,-1.7112212819162902,0.21196677732738217,0.15806263603261242,0.20156464744647748,0.018808419552925934,0.046963810491426415,0.03796378404977483,-8.937298655509949,-38.15928077697754,-36.56276893615723,-0.8806629092017373,-8.110931146050966,-8.556106409581451,-1.4911247491836548,-7.407713890075684,-7.093662738800049,-0.1531270491290988,-1.5627472301551406,-1.6614158365014795,-0.20061220023421944,-1.6813694977260984,-1.7575665194110683,-0.025874896074073055,-0.3033764688364186,-0.324427286193052,0.0023976907406329244,0.021571541435032815,0.022714084526957293,-0.12937448037036528,-1.5168823441820931,-1.62213643096526,-0.022945770225258212,-0.27633974326163485,-0.2958916887061889,-0.029008569059196864,-0.33090794256076667,-0.3533474434818553
-136.71165466308594,9.338750839233398,22.12176322937012,-2.1083109378814697,-7.6176605224609375,-7.202458381652832,8.1705904006958,-34.249881744384766,40.66558456420898,0.35,-1.5983338974533599,-3.2573988729548535,-2.6351065166813603,-0.2139316493796641,-1.7085144883340555,-1.779525740383413,-0.030791332804027398,-0.3451455632968838,-0.3681768246517171,-0.582304200674509,0.41796274538056644,20.47936561127429,17.43570327758789,-13.055477142333984,-8.551111221313477,-0.1882935018904605,-1.651339680845976,-1.7348432626926769,0.17224036681456661,0.10134277334872129,0.14374612111855775,0.01984377530551348,0.04607698174465499,0.03591629982344759,-9.554484844207764,-38.36922740936279,-36.197218894958496,-0.9414675094523026,-8.25669840422988,-8.674216313463385,-1.6677682399749756,-7.557523250579834,-7.093662738800049,-0.16372313691573792,-1.59247683249054,-1.6882673119218998,-0.2139316493796641,-1.7085144883340555,-1.779525740383413,-0.027444008589826895,-0.3171376328434684,-0.33888431338215763,0.0025630394552581316,0.021955353263098686,0.023013214460784817,-0.13722004294913448,-1.5856881642173422,-1.694421566910788,-0.024310129699556027,-0.2896103835323893,-0.30996058297220475,-0.030791332804027398,-0.3451455632968838,-0.3681768246517171
-136.64749145507812,9.788012504577637,22.0581169128418,-2.165232419967652,-7.574001789093018,-7.291565895080566,10.61832046508789,-35.082603454589844,41.83859634399414,0.35833333333333334,-1.6237543317594114,-3.125087210232067,-2.6433720383382813,-0.2274629354776592,-1.734556881752656,-1.8015538407028988,-0.03268685726634123,-0.3596002039781559,-0.38318977332424126,-0.5113915223021653,0.3342533618116061,20.526688907353822,5.239048004150391,-10.692901611328125,-6.83057785034185,-0.20104146160284478,-1.6797556906983993,-1.7575005684488765,0.1367002164096197,0.0967794191559759,0.08800059950522163,0.020573593402167613,0.04448390865625405,0.03490750950597026,-10.05194902420044,-38.38570594787598,-36.02864122390747,-1.0052073080142239,-8.398778453491996,-8.787502842244383,-1.8439111709594729,-7.574001789093018,-7.093662738800049,-0.17556971554637427,-1.6220833458236659,-1.7130092415251705,-0.2274629354776592,-1.734556881752656,-1.8015538407028988,-0.029119354103183937,-0.33113559693262173,-0.35353015145256494,0.002734457779759751,0.022325745492355893,0.023304081698284608,-0.14559677051591968,-1.6556779846631087,-1.7676507572628246,-0.02577321066244248,-0.3031277447475865,-0.3242356599849145,-0.03268685726634123,-0.3596002039781559,-0.38318977332424126
-136.57862854003906,10.249838829040527,21.99685478210449,-2.227583646774292,-7.532142639160156,-6.893916130065918,11.25423526763916,-36.3001708984375,42.65808868408203,0.36666666666666664,-1.6538787978236411,-2.9961655773559084,-2.1682917361529137,-0.24124525879285622,-1.7595249282306218,-1.8196229385041731,-0.034697234422948364,-0.3742629117134111,-0.39835329781177603,-0.6263831909787588,0.5365874115505518,20.228305970561557,5.023097991943359,47.71797180175781,-7.482147216796822,-0.21417657025214115,-1.7072440071797903,-1.7788233078446773,0.12724475663220566,0.11683069118499442,0.1488587694974958,0.021201244344949452,0.04235052153034335,0.0334684608728376,-10.435621500015259,-38.28285217285156,-35.629265785217285,-1.0708828512607058,-8.536220035898952,-8.894116539223386,-1.8974428176879885,-7.532142639160156,-6.893916130065918,-0.18763080737630686,-1.6522542398555207,-1.7358475002218323,-0.24124525879285622,-1.7595249282306218,-1.8196229385041731,-0.030904158855285115,-0.3453626303257866,-0.36835367901793725,0.002911076704465982,0.022678396920247524,0.023582744046153483,-0.15452079427642557,-1.7268131516289331,-1.8417683950896862,-0.027336800723911703,-0.31689653007971585,-0.3387010558200964,-0.034697234422948364,-0.3742629117134111,-0.39835329781177603
-136.4969024658203,10.723746299743652,21.934818267822266,-2.417492151260376,-7.71448278427124,-6.858077049255371,12.81132984161377,-37.26837158203125,43.8047981262207,0.375,-1.8097199191023696,-3.091116042377103,-2.059460959584385,-0.2563262581187093,-1.7852842285837642,-1.8367851131673762,-0.036833286573937606,-0.38914028028494246,-0.41365984042150417,-0.7547780847877403,0.6388408866176748,20.36523216741611,-21.880817413330078,4.300689697265625,-22.789020538330078,-0.2279156604006216,-1.7338500049254393,-1.799010830433786,0.1447743959604752,0.09637697228605457,0.1891376222278894,0.02194354527614973,0.04093065098970776,0.03144647033765678,-10.955670833587646,-38.20124578475952,-35.339680194854736,-1.139578302003108,-8.669250024627196,-8.99505415216893,-2.0370516777038574,-7.532142639160156,-6.858077049255371,-0.20061220023421944,-1.6813694977260984,-1.7575665194110683,-0.2563262581187093,-1.7852842285837642,-1.8367851131673762,-0.03280345602529029,-0.359811380366832,-0.3833454359382188,0.0030939187563592788,0.023019397426264066,0.02384423194304253,-0.16401728012645145,-1.79905690183416,-1.9167271796910939,-0.029008569059196864,-0.33090794256076667,-0.3533474434818553,-0.036833286573937606,-0.38914028028494246,-0.41365984042150417
-136.38165283203125,11.204301834106444,21.88808250427246,-2.4403438568115234,-7.539628505706787,-7.0615105628967285,16.6042537689209,-38.98826217651367,43.05685424804688,0.3833333333333333,-1.797013301677811,-2.829671985216999,-2.1892352599234046,-0.27130136896602436,-1.8088648284605726,-1.8550287403334047,-0.03909413131532114,-0.40421415385544723,-0.42911841325761585,-0.580554860860965,0.39928360994116724,20.401021491140938,20.982513427734375,-24.41202163696289,-2.7422046661376953,-0.2420534941469826,-1.759349071072334,-1.8185032746182532,0.14972778864751202,0.07457531290038946,0.18859005259006847,0.022713023646196692,0.039759530316811356,0.029479316472485202,-11.358963012695312,-37.97791624069214,-35.307528018951416,-1.210267470734913,-8.79674535536167,-9.092516373091266,-2.1083109378814697,-7.532142639160156,-6.858077049255371,-0.2139316493796641,-1.7085144883340555,-1.779525740383413,-0.27130136896602436,-1.8088648284605726,-1.8550287403334047,-0.03482056847651514,-0.3744726226257681,-0.39849962989337084,0.003283178657892157,0.023350632138495246,0.024089559548342732,-0.17410284238257573,-1.8723631131288405,-1.9924981494668543,-0.030791332804027398,-0.3451455632968838,-0.3681768246517171,-0.03909413131532114,-0.40421415385544723,-0.42911841325761585
-136.26266479492188,11.689762115478516,21.845144271850582,-2.435065746307373,-7.264821529388428,-6.747735977172852,16.949419021606445,-39.67220306396485,43.2549934387207,0.39166666666666666,-1.756346114080205,-2.4729273203913413,-1.803486286073018,-0.2859375865833594,-1.8294725561305005,-1.8700577927173465,-0.041476944536849136,-0.41945975848986805,-0.44470222819692706,-0.569161157618414,0.4008877200773123,19.99599344555491,32.976837158203125,37.652950286865234,0.6333732604980469,-0.25645468158772167,-1.7835406846316233,-1.83660968508504,0.13062519531466366,0.16298983612423668,0.21183367987466042,0.023246129731320647,0.037849235545688524,0.027274209705244395,-11.685717821121216,-37.62507724761963,-34.852805614471436,-1.2822734079386084,-8.917703423158116,-9.1830484254252,-2.165232419967652,-7.264821529388428,-6.747735977172852,-0.2274629354776592,-1.734556881752656,-1.8015538407028988,-0.2859375865833594,-1.8294725561305005,-1.8700577927173465,-0.036957690823079495,-0.38933546166436495,-0.41380471060241286,0.0034768229365963635,0.023665661558512484,0.02431670008275005,-0.18478845411539746,-1.9466773083218247,-2.069023553012064,-0.03268685726634123,-0.3596002039781559,-0.38318977332424126,-0.041476944536849136,-0.41945975848986805,-0.44470222819692706
-136.13748168945312,12.173190116882324,21.80435562133789,-2.436907291412353,-6.936116218566895,-6.802305221557617,17.736059188842773,-39.54851150512695,42.93537521362305,0.4,-1.723144610217517,-2.068197297623505,-1.7890095433543447,-0.3002971250018387,-1.8467075336106964,-1.8849662055786327,-0.043979420578531124,-0.43484898793662385,-0.4604102799100823,-0.4172772907081181,0.1426615284298387,19.81625349581954,39.44463729858388,-6.548309326171875,-0.22098541259760296,-0.2710215194925576,-1.805970815003231,-1.8532921580601864,0.09204574839710164,0.3038444459174538,0.1192526886007012,0.023357037800320876,0.03466028941236305,0.02594921186786074,-11.957392692565918,-36.987191677093506,-34.363544940948486,-1.355107597462788,-9.029854075016155,-9.266460790300933,-2.227583646774292,-6.936116218566895,-6.747735977172852,-0.24124525879285622,-1.7595249282306218,-1.8196229385041731,-0.3002971250018387,-1.8467075336106964,-1.8849662055786327,-0.03921620348551747,-0.40438521845605857,-0.4292488119195811,0.0036712893915843777,0.023953464126473187,0.02453268732797367,-0.19608101742758735,-2.021926092280293,-2.1462440595979055,-0.034697234422948364,-0.3742629117134111,-0.39835329781177603,-0.043979420578531124,-0.43484898793662385,-0.4604102799100823
-136.0181121826172,12.650349617004396,21.760536193847656,-2.4463040828704834,-6.953327655792236,-7.051179885864258,17.105573654174805,-38.7060661315918,42.79176712036133,0.4083333333333333,-1.697718614643772,-2.0127856283282384,-1.966997132345333,-0.3144447801238701,-1.8634807471800985,-1.9013578483481772,-0.046599793746230044,-0.4503779941631247,-0.47625492864631713,-0.24232622716098692,0.01823686649759576,20.007708191246742,-2.065372467040909,-29.864959716796875,-1.1276149749756392,-0.28566142375876036,-1.8267619787931264,-1.8696391400289876,0.010796505623114573,0.34690397755614855,0.1443438218513603,0.022964781390222733,0.03079834447984891,0.025169532803376755,-12.17611312866211,-36.408376693725586,-34.520808696746826,-1.428307118793802,-9.133809893965632,-9.348195700144938,-2.417492151260376,-6.936116218566895,-6.747735977172852,-0.2563262581187093,-1.7852842285837642,-1.8367851131673762,-0.3144447801238701,-1.8634807471800985,-1.9013578483481772,-0.04159671535017381,-0.41960823494600125,-0.4448291380864893,0.003862499296046049,0.024209268230937823,0.02474227349362931,-0.20798357675086906,-2.0980411747300063,-2.2241456904324464,-0.036833286573937606,-0.38914028028494246,-0.41365984042150417,-0.046599793746230044,-0.4503779941631247,-0.47625492864631713
-135.90277099609375,13.116320610046388,21.711578369140625,-2.409980773925781,-6.734121799468994,-6.852407932281494,16.845251083374023,-37.2075424194336,42.31138610839844,0.4166666666666667,-1.6271138376531407,-1.7234077645315695,-1.6976516961129215,-0.32800406210431293,-1.877842478551195,-1.915504945815785,-0.04933316093043265,-0.46602668148438464,-0.49221746986144865,-0.18016045604755135,0.0011717836205632636,19.71350640168267,26.304702758789062,23.85263442993164,4.358797073364311,-0.2999969845558811,-1.8452736287866123,-1.885383106558669,0.013944132586968298,0.3168755828174452,0.14481780426982654,0.022440645597309496,0.027246834020189376,0.02407770844147727,-12.168601751327515,-35.42801570892334,-34.51513957977295,-1.4999849227794055,-9.226368143933062,-9.426915532793345,-2.409980773925781,-6.734121799468994,-6.747735977172852,-0.27130136896602436,-1.8088648284605726,-1.8550287403334047,-0.32800406210431293,-1.877842478551195,-1.915504945815785,-0.04409669022147282,-0.4349855151858897,-0.4605406639744782,0.004049338463632791,0.024435767089648047,0.024942879912785983,-0.22048345110736411,-2.1749275759294484,-2.302703319872391,-0.03909413131532114,-0.40421415385544723,-0.42911841325761585,-0.04933316093043265,-0.46602668148438464,-0.49221746986144865
-135.80416870117188,13.573286056518556,21.662973403930664,-2.3284125328063965,-6.411698818206787,-6.750220775604248,14.82731819152832,-36.421756744384766,41.637306213378906,0.425,-1.5125692156020873,-1.3361103165264074,-1.5281655370333551,-0.34060880556766365,-1.888976731188915,-1.9282396586243962,-0.052171567643496515,-0.48176815424429226,-0.5082861336833187,-0.03289946071323288,-0.13005657852788652,19.405773553476024,38.690757751464844,12.262458801269531,9.788188934326119,-0.31385847187620897,-1.8612960093322812,-1.9000252902168675,0.04826462642230579,0.3143260529319681,0.1252415587573442,0.021676645251574148,0.02382402612463268,0.023250123493188384,-12.056670427322388,-34.30008602142334,-34.20384979248047,-1.5692923593810448,-9.306480046661406,-9.500126451084338,-2.3284125328063965,-6.411698818206787,-6.747735977172852,-0.2859375865833594,-1.8294725561305005,-1.8700577927173465,-0.34060880556766365,-1.888976731188915,-1.9282396586243962,-0.046712177487107896,-0.4504963152636587,-0.47637420805961883,0.004229738454086683,0.024633518307966354,0.025136405269542014,-0.2335608874355395,-2.2524815763182935,-2.381871040298094,-0.041476944536849136,-0.41945975848986805,-0.44470222819692706,-0.052171567643496515,-0.48176815424429226,-0.5082861336833187
-135.7317352294922,14.021930694580078,21.61575698852539,-2.3479490280151367,-6.829920768737793,-6.794156074523926,11.74086570739746,-35.729618072509766,40.820987701416016,0.43333333333333335,-1.4999530576456532,-1.6893349003940896,-1.506002958588688,-0.3531084143813774,-1.9030545220255324,-1.940789683279302,-0.05511413776334133,-0.49762694192783835,-0.5244593810439795,-0.0026505531886791547,0.15848669400915494,19.724439674170863,-50.1866340637207,-5.272235870361328,-2.344379425048828,-0.3272926374358126,-1.8760124025112872,-1.9141716683292587,0.05304362806933364,0.22046257601585037,0.11814012820627255,0.02084529879348538,0.021900439212603758,0.021939449267616453,-11.969553709030151,-33.865185260772705,-34.25026988983154,-1.636463187179063,-9.380062012556436,-9.570858341646293,-2.3284125328063965,-6.411698818206787,-6.750220775604248,-0.3002971250018387,-1.8467075336106964,-1.8849662055786327,-0.3531084143813774,-1.9030545220255324,-1.940789683279302,-0.049439616132406335,-0.4661297519512527,-0.4923256386290292,0.004403220814940789,0.02481555609379008,0.025318887939432492,-0.24719808066203167,-2.3306487597562637,-2.4616281931451462,-0.043979420578531124,-0.43484898793662385,-0.4604102799100823,-0.05511413776334133,-0.49762694192783835,-0.5244593810439795
-135.64349365234375,14.460644721984863,21.58977699279785,-2.3032054901123047,-7.001302719116211,-6.597964763641357,13.006800651550291,-36.5860595703125,38.3115234375,0.44166666666666665,-1.4235638577020273,-1.7914335096753193,-1.245699572931529,-0.3649714465288943,-1.91798313460616,-1.9511705130537313,-0.058155566484415444,-0.513610134716223,-0.5407191353194273,0.013493714188361847,0.42818824093455493,19.69294526275661,-20.565834045410156,23.542957305908203,5.369224548339844,-0.3402275017412237,-1.8902675227103802,-1.9274125298242784,0.059283241703766455,0.2340275271838299,0.1648835826139816,0.01995299048552495,0.02124406801124571,0.019778214830219656,-11.835851907730103,-33.93037176132202,-34.04592943191528,-1.7011375087061185,-9.451337613551901,-9.637062649121392,-2.3032054901123047,-6.411698818206787,-6.597964763641357,-0.3144447801238701,-1.8634807471800985,-1.9013578483481772,-0.3649714465288943,-1.91798313460616,-1.9511705130537313,-0.052274845313583194,-0.4818819813071726,-0.5083874097108982,0.004569322889763222,0.02499241984451415,0.02548343724015093,-0.261374226567916,-2.409409906535863,-2.5419370485544914,-0.046599793746230044,-0.4503779941631247,-0.47625492864631713,-0.058155566484415444,-0.513610134716223,-0.5407191353194273
-135.54811096191406,14.89470100402832,21.57815361022949,-2.261812925338745,-6.619043827056885,-6.6270527839660645,13.494943618774414,-37.25733947753906,36.73257064819336,0.45,-1.3515432167939516,-1.3423963587413485,-1.2127715377339312,-0.3762343066688439,-1.9291697709290045,-1.9612769425348475,-0.06129085237332248,-0.5296865494739647,-0.557063109840551,0.1752562025606673,0.15957546349461388,19.442714489183007,45.87106704711914,-3.4905624389648438,4.967107772827148,-0.35258540705021846,-1.9034053274601614,-1.9393963486616124,0.054974231325474875,0.22172726890171063,0.10883587960859276,0.019109156615541252,0.02084517754543426,0.018128731197065307,-11.651360750198364,-33.59608793258667,-33.62180233001709,-1.7629270352510922,-9.517026637300807,-9.696981743308061,-2.261812925338745,-6.411698818206787,-6.597964763641357,-0.32800406210431293,-1.877842478551195,-1.915504945815785,-0.3762343066688439,-1.9291697709290045,-1.9612769425348475,-0.05521305703900168,-0.4977436923693405,-0.524549045949745,0.004728413554668056,0.025165901241960862,0.025634241301689804,-0.2760652851950084,-2.4887184618467026,-2.622745229748725,-0.04933316093043265,-0.46602668148438464,-0.49221746986144865,-0.06129085237332248,-0.5296865494739647,-0.557063109840551
-135.45806884765625,15.316739082336426,21.57687187194824,-2.320565700531006,-6.5994133949279785,-6.652533531188965,12.492361068725586,-37.04744338989258,34.97203063964844,0.4583333333333333,-1.379804630516595,-1.2600848289620679,-1.1764461451622035,-0.3877326785898155,-1.9396704778370217,-1.9710806604111992,-0.06452195802823761,-0.5458504701226065,-0.5734887820106442,0.206779950047809,0.12194279201391513,19.460692033163394,2.35565185546875,-3.057689666748047,-7.050333023071289,-0.36453113034731893,-1.9157709273173267,-1.9505114915806954,0.032520777241311485,0.22757062914967685,0.08389576041566249,0.018562233958384827,0.020219095528601058,0.01680749869706268,-11.561945676803589,-33.461379528045654,-33.42192792892456,-1.8226556517365946,-9.578854636586634,-9.752557457903476,-2.261812925338745,-6.411698818206787,-6.597964763641357,-0.34060880556766365,-1.888976731188915,-1.9282396586243962,-0.3877326785898155,-1.9396704778370217,-1.9710806604111992,-0.05825081645856267,-0.513708450096985,-0.5408033083795842,0.004882983895633112,0.025333851765445864,0.025774110198607425,-0.29125408229281335,-2.5685422504849247,-2.704016541897921,-0.052171567643496515,-0.48176815424429226,-0.5082861336833187,-0.06452195802823761,-0.5458504701226065,-0.5734887820106442
-135.37155151367188,15.72519588470459,21.583057403564453,-2.329181432723999,-6.585712432861328,-6.630743503570557,11.877615928649902,-36.40257263183594,33.22138977050781,0.4666666666666667,-1.3576435092530792,-1.1846578004528245,-1.0934889904331584,-0.39904637450025787,-1.9495426261741287,-1.9801930686648088,-0.06784734448240642,-0.5620966586740576,-0.5899903909161843,0.25986243510554086,0.13372840872778471,19.436943545723835,1.6441154479980469,2.6148033142089844,-1.0338878631591797,-0.37621864413383777,-1.9278841063143695,-1.9609021735887775,0.03261716401349922,0.18284535073264846,0.07720464934527874,0.018126366718309746,0.01819478267535488,0.015613280899674377,-11.562714576721191,-33.635393142700195,-33.30245065689087,-1.8810932206691888,-9.639420531571847,-9.804510867943888,-2.261812925338745,-6.585712432861328,-6.597964763641357,-0.3531084143813774,-1.9030545220255324,-1.940789683279302,-0.39904637450025787,-1.9495426261741287,-1.9801930686648088,-0.06138597182634466,-0.529774150982938,-0.5571441598261572,0.005033989842965608,0.025484891045728205,0.02590417116199566,-0.30692985913172327,-2.64887075491469,-2.785720799130786,-0.05511413776334133,-0.49762694192783835,-0.5244593810439795,-0.06784734448240642,-0.5620966586740576,-0.5899903909161843
-135.28298950195312,16.119247436523438,21.59551429748535,-2.28753399848938,-6.5101399421691895,-6.58297061920166,11.867484092712402,-35.66555404663086,31.594379425048828,0.475,-1.2857839733439085,-1.0487798052126722,-0.98580221554211,-0.40976124094479044,-1.9582824578842342,-1.9884080871276597,-0.07126202149027967,-0.5784156791564262,-0.6065604583089148,0.3488184174815116,0.1318683656015445,19.33948962326541,9.06869888305664,5.732746124267578,4.997692108154297,-0.3875492094465204,-1.9389296934861098,-1.9704258543584494,0.02691363735359516,0.1934965255333126,0.027681503866372432,0.0177719949056963,0.015982232390843308,0.014778859038802933,-11.502299547195435,-33.31561231613159,-33.0912652015686,-1.937746047232602,-9.694648467430548,-9.852129271792247,-2.261812925338745,-6.5101399421691895,-6.58297061920166,-0.3649714465288943,-1.91798313460616,-1.9511705130537313,-0.40976124094479044,-1.9582824578842342,-1.9884080871276597,-0.06461554857173232,-0.5459318984286556,-0.5735643752791443,0.00518203241101505,0.025617913102322483,0.026027210513443436,-0.3230777428586616,-2.729659492143278,-2.8678218763957215,-0.058155566484415444,-0.513610134716223,-0.5407191353194273,-0.07126202149027967,-0.5784156791564262,-0.6065604583089148
-135.19436645507812,16.498973846435547,21.609193801879883,-2.330470085144043,-6.51209020614624,-6.518794059753418,11.866315841674805,-34.46158218383789,30.28933906555176,0.48333333333333334,-1.298779231488226,-0.9917027123435318,-0.8633136068436542,-0.4205844012071923,-1.9665466471537636,-1.99560236718469,-0.0747668915003396,-0.5948035678827076,-0.6231904780354539,0.3456657504008245,0.16544488189594267,19.306643030264315,-0.23403167724609375,7.7011871337890625,-5.15233039855957,-0.39867180038218,-1.9486423959956305,-1.9793122251846413,0.030173565858891936,0.05084953836940199,0.05313176356510683,0.017509879942493332,0.014781592095894266,0.013619006892767651,-11.529564142227173,-32.82639980316162,-33.012094497680664,-1.9933590019109,-9.743211979978152,-9.896561125923206,-2.261812925338745,-6.5101399421691895,-6.518794059753418,-0.3762343066688439,-1.9291697709290045,-1.9612769425348475,-0.4205844012071923,-1.9665466471537636,-1.99560236718469,-0.06793781357491716,-0.5621705850619525,-0.5900586438223496,0.005327875058689868,0.025740915070876575,0.026140478961449644,-0.33968906787458575,-2.8108529253097627,-2.950293219111748,-0.06129085237332248,-0.5296865494739647,-0.557063109840551,-0.0747668915003396,-0.5948035678827076,-0.6231904780354539
-135.09918212890625,16.863737106323242,21.628610610961918,-2.279313564300537,-6.4011406898498535,-6.463796615600586,12.403190612792969,-33.630374908447266,28.66072654724121,0.49166666666666664,-1.2180319002186848,-0.8232932241605546,-0.7516549389325577,-0.43073466704234803,-1.9734074240217683,-2.0018661583424615,-0.07835634705902583,-0.6112486297495556,-0.6398726960216411,0.43599670989036676,0.14215511224822142,19.176975922704827,13.313941955566406,6.599693298339844,6.138782501220703,-0.4095718724568808,-1.9574899266141834,-1.9874300683461636,0.024203518508576282,0.07889469825133133,0.07837526911864133,0.017006704711417964,0.01338573266090163,0.012204722320019616,-11.547064781188965,-32.60849666595459,-32.848838329315186,-2.047859362284404,-9.787449633070917,-9.937150341730819,-2.279313564300537,-6.4011406898498535,-6.463796615600586,-0.3877326785898155,-1.9396704778370217,-1.9710806604111992,-0.43073466704234803,-1.9734074240217683,-2.0018661583424615,-0.07135091251205783,-0.5784830011170706,-0.6066205610585678,0.005469518615346167,0.02585220565660045,0.02624189199738184,-0.35675456256028915,-2.8924150055853532,-3.0331028052928386,-0.06452195802823761,-0.5458504701226065,-0.5734887820106442,-0.07835634705902583,-0.6112486297495556,-0.6398726960216411
-134.99969482421875,17.216312408447266,21.646732330322266,-2.2162256240844727,-6.39634895324707,-6.439910411834717,12.989922523498535,-32.409603118896484,27.74256896972656,0.5,-1.1265954608768518,-0.7626540820581313,-0.6724060146816466,-0.4401229625496551,-1.979762874705586,-2.007469541798142,-0.0820240384136063,-0.6277466537054355,-0.656601608869959,0.5407803027069203,0.18142868822969288,19.135879173370316,0.5750083923339844,2.866344451904297,7.570552825927734,-0.42004992924884876,-1.9655084059878962,-1.9947078446235522,0.04670483403993077,0.0811229044629712,0.07990890285430831,0.016312436720034157,0.01197688148166806,0.010785038320808571,-11.442724704742432,-32.40543222427368,-32.63621520996094,-2.1002496462442437,-9.827542029939481,-9.973539223117761,-2.2162256240844727,-6.39634895324707,-6.439910411834717,-0.39904637450025787,-1.9495426261741287,-1.9801930686648088,-0.4401229625496551,-1.979762874705586,-2.007469541798142,-0.07485132858913157,-0.5948622378336366,-0.6232431264304307,0.005605331594551481,0.025951756007063412,0.02633149037817609,-0.37425664294565786,-2.9743111891681826,-3.1162156321521532,-0.06784734448240642,-0.5620966586740576,-0.5899903909161843,-0.0820240384136063,-0.6277466537054355,-0.656601608869959
-134.8917236328125,17.551036834716797,21.66389274597168,-2.2036142349243164,-6.259378910064697,-6.462646007537842,13.99436092376709,-30.792829513549805,26.41370010375977,0.5083333333333333,-1.086542996437403,-0.5716565928462352,-0.6404121313124822,-0.4491774875199668,-1.9845266796459713,-2.012806309559079,-0.08576718414293935,-0.6442843760358186,-0.6733749947829514,0.6277538397828792,0.07640797009064301,19.05129971343929,16.436405181884766,-2.728271484375,1.51336669921875,-0.4300761518527906,-1.9725052166822645,-2.0012304928024065,0.05275851168313937,0.10396227983045286,0.057772849809368525,0.015564559158725153,0.010437846623122284,0.009610140762362848,-11.317157506942749,-32.07909870147705,-32.46811771392822,-2.150380759263953,-9.862526083411323,-10.006152464012033,-2.2036142349243164,-6.259378910064697,-6.439910411834717,-0.40976124094479044,-1.9582824578842342,-1.9884080871276597,-0.4491774875199668,-1.9845266796459713,-2.012806309559079,-0.07843529652123815,-0.6112997813059887,-0.639920047203784,0.005734870259038222,0.026038312873466977,0.026411412850671556,-0.39217648260619076,-3.0564989065299435,-3.19960023601892,-0.07126202149027967,-0.5784156791564262,-0.6065604583089148,-0.08576718414293935,-0.6442843760358186,-0.6733749947829514
-134.7911834716797,17.87100601196289,21.67165756225586,-2.1817328929901123,-5.919966697692871,-6.437158584594727,13.471878051757812,-28.70601463317871,25.92756080627441,0.5166666666666666,-1.037773463032973,-0.18284590708241222,-0.5608380847388572,-0.4578255997119082,-1.9860503955383246,-2.0174799602652365,-0.08958239747387192,-0.6608347959986379,-0.6901873277851617,0.7086046246308545,-0.146208814317322,18.794401884930178,40.72946548461914,3.058490753173828,2.625761032104492,-0.43968902360621415,-1.978058804213083,-2.0070448674299217,0.061214376748547066,0.22942627911146324,0.032802325575152086,0.014699674671305459,0.008105058584222734,0.008660478709085435,-11.211356401443481,-31.488925457000732,-32.32230567932129,-2.1984451180310707,-9.890294021065415,-10.035224337149609,-2.1817328929901123,-5.919966697692871,-6.437158584594727,-0.4205844012071923,-1.9665466471537636,-1.99560236718469,-0.4578255997119082,-1.9860503955383246,-2.0174799602652365,-0.0820993717179566,-0.6277836046744311,-0.6566454210990335,0.005857253991726926,0.02610434011517207,0.026483474003646763,-0.410496858589783,-3.138918023372155,-3.2832271054951674,-0.0747668915003396,-0.5948035678827076,-0.6231904780354539,-0.08958239747387192,-0.6608347959986379,-0.6901873277851617
-134.71644592285156,18.1788387298584,21.67413902282715,-2.161642074584961,-5.821871757507324,-6.427908897399902,10.525543212890623,-27.23678970336914,25.40402603149414,0.525,-0.9914064991697926,-0.03961575891224367,-0.49841047040053965,-0.4660873205383232,-1.9863805268625934,-2.021633380851908,-0.09346645847835795,-0.6773879670558262,-0.7070342726255943,0.7762217923173098,-0.19876797964383233,18.711846495651912,11.771392822265625,1.1099624633789062,2.410898208618164,-0.4487896074724403,-1.9820255801548488,-2.0122510701633654,0.044750027618675,0.27195228809023847,0.016093067014694085,0.013983044126230006,0.005495740383488408,0.007848355613994894,-11.0425283908844,-30.798707008361816,-32.23142051696777,-2.2439480373622014,-9.910127900774244,-10.061255350816827,-2.161642074584961,-5.821871757507324,-6.427908897399902,-0.43073466704234803,-1.9734074240217683,-2.0018661583424615,-0.4660873205383232,-1.9863805268625934,-2.021633380851908,-0.08583928511356027,-0.6443004845090547,-0.6734141800170615,0.005973699262979184,0.02614679537973384,0.02654874924422572,-0.42919642556780135,-3.2215024225452735,-3.3670709000853076,-0.07835634705902583,-0.6112486297495556,-0.6398726960216411,-0.09346645847835795,-0.6773879670558262,-0.7070342726255943
-134.65794372558594,18.472612380981445,21.671640396118164,-2.173369884490967,-5.902975559234619,-6.347612380981445,8.804827690124512,-25.590740203857425,24.59228515625,0.5333333333333333,-0.9771822229651437,-0.07626526717360793,-0.3663008424802232,-0.4742305057296994,-1.9870160707557067,-2.024685887872576,-0.09741837935943878,-0.6939464343121237,-0.7239066550245324,0.7696312293600553,-0.0881295688744605,18.712850161426186,-9.73245620727539,9.635581970214844,-1.4073371887207031,-0.4574887752099105,-1.9847473095016366,-2.0168150160693883,0.022283483175934024,0.25191941669314094,0.04406135684735902,0.013462753486222466,0.002932830440380956,0.006874173225610059,-10.936584711074829,-30.300541877746582,-32.11523628234863,-2.2874438760495526,-9.923736547508183,-10.084075080346942,-2.161642074584961,-5.821871757507324,-6.347612380981445,-0.4401229625496551,-1.979762874705586,-2.007469541798142,-0.4742305057296994,-1.9870160707557067,-2.024685887872576,-0.08965169157364286,-0.6608400454215684,-0.6902209718176398,0.006085827348861699,0.02616834675438426,0.026605741750401625,-0.44825845786821433,-3.3042002271078417,-3.4511048590881988,-0.0820240384136063,-0.6277466537054355,-0.656601608869959,-0.09741837935943878,-0.6939464343121237,-0.7239066550245324
-134.61166381835938,18.752944946289062,21.67148780822754,-2.2006828784942627,-5.965445041656494,-6.254701614379883,7.20997953414917,-24.649721145629883,23.32086563110352,0.5416666666666666,-0.9784652489942216,-0.09360223325068695,-0.2236374146728366,-0.48238438280465123,-1.987796089366129,-2.0265495329948497,-0.10143824921614421,-0.710511401723508,-0.7407945677994895,0.7417278951625847,0.01163459119016019,18.698224588041963,-7.496337890625,11.1492919921875,-3.277559280395508,-0.46594105926090973,-1.986353952433745,-2.02063101430873,0.017894380870136513,0.16779552624878072,0.08508972050101818,0.01309577437085632,0.001219624782227064,0.005559468224279281,-10.92104196548462,-29.869637966156006,-31.9300274848938,-2.3297052963045486,-9.931769762168726,-10.10315507154365,-2.161642074584961,-5.821871757507324,-6.254701614379883,-0.4491774875199668,-1.9845266796459713,-2.012806309559079,-0.48238438280465123,-1.987796089366129,-2.0265495329948497,-0.09353453373415044,-0.6773929950251828,-0.7070595636035458,0.00619493160159431,0.026178234499907572,0.026651445341772037,-0.4676726686707522,-3.386964975125914,-3.535297818017729,-0.08576718414293935,-0.6442843760358186,-0.6733749947829514,-0.10143824921614421,-0.710511401723508,-0.7407945677994895
-134.5727081298828,19.023080825805664,21.68038558959961,-2.2760159969329834,-5.83721399307251,-6.200143337249756,6.027751922607422,-24.485958099365234,21.709003448486328,0.55,-1.0271552895296399,0.07866665279716312,-0.12115371713799306,-0.49094401021739825,-1.9871405339261528,-2.027559147304333,-0.1055294493012892,-0.7270709061728926,-0.7576908940270256,0.6962173224275071,-0.06768478296524402,18.59668274332047,15.387725830078125,6.546993255615234,-9.039974212646484,-0.474294363800396,-1.9868767232897813,-2.0235815818577807,0.045509564554055734,0.05955011602631298,0.10470253855382733,0.013050277399937794,0.0006825093774715427,0.004088842312473815,-10.993443727493286,-29.44747304916382,-31.667524814605713,-2.37147181900198,-9.934383616448907,-10.117907909288903,-2.161642074584961,-5.821871757507324,-6.200143337249756,-0.4578255997119082,-1.9860503955383246,-2.0174799602652365,-0.49094401021739825,-1.987796089366129,-2.027559147304333,-0.09748698676582042,-0.6939503010525977,-0.7239227434523607,0.006303680772902498,0.026182972216299918,0.026684477819402516,-0.4874349338291021,-3.4697515052629884,-3.6196137172618035,-0.08958239747387192,-0.6608347959986379,-0.6901873277851617,-0.1055294493012892,-0.7270709061728926,-0.7576908940270256
-134.5491485595703,19.28002548217773,21.705951690673828,-2.388542652130127,-5.739871978759766,-6.061235427856445,3.46808123588562,-24.72715950012207,19.305891036987305,0.5583333333333333,-1.1117127675242342,0.2176117022517312,0.06347848889758723,-0.5002082832801003,-1.985327103074055,-2.027030159896853,-0.1096978516619567,-0.7436152986985097,-0.7745828120261661,0.5728895410848452,-0.08719665024766762,18.473373220830307,11.681041717529297,16.668949127197266,-13.503198623657227,-0.4827709005140345,-1.9867320647969273,-2.025491621784104,0.09419054025939637,0.08537626618112668,0.14051109280261714,0.013437741809650537,0.0009323560296008926,0.002413305184666095,-11.2002534866333,-29.267378330230713,-31.29160165786743,-2.4138545025701723,-9.933660323984636,-10.12745810892052,-2.161642074584961,-5.739871978759766,-6.061235427856445,-0.4660873205383232,-1.985327103074055,-2.021633380851908,-0.5002082832801003,-1.987796089366129,-2.027559147304333,-0.10151007760343737,-0.710506401592572,-0.7408018403005615,0.006415644070266096,0.02618036061181678,0.02670248186773107,-0.5075503880171869,-3.55253200796286,-3.7040092015028074,-0.09346645847835795,-0.6773879670558262,-0.7070342726255943,-0.1096978516619567,-0.7436152986985097,-0.7745828120261661
-134.5431671142578,19.52638053894043,21.73902702331543,-2.4970381259918213,-5.8588972091674805,-6.145640850067139,1.0927938222885132,-24.41919708251953,17.77507781982422,0.5666666666666667,-1.190645143248966,0.13986007270694323,0.023785944763593747,-0.5101303261405084,-1.9841616024681636,-2.02683194369049,-0.1139489377131276,-0.7601499787190777,-0.7914730782235868,0.5489435532619876,-0.0722531019458919,18.64313182471837,-14.283027648925781,-10.128650665283203,-13.01945686340332,-0.4915795016344715,-1.9862882799180415,-2.0265313343518203,0.13498514326514408,0.08353567589491524,0.1083683562978722,0.014182125026605527,0.001498008981482601,0.0010956272475026094,-11.535649538040161,-29.30440378189087,-31.009333610534668,-2.4578975081723575,-9.931441399590208,-10.1326566717591,-2.173369884490967,-5.739871978759766,-6.061235427856445,-0.4742305057296994,-1.9841616024681636,-2.024685887872576,-0.5101303261405084,-1.987796089366129,-2.027559147304333,-0.1056065734503913,-0.7270588039252224,-0.7576896014201601,0.006533777552532456,0.02616958662216528,0.02670876962437286,-0.5280328672519565,-3.635294019626112,-3.7884480071008,-0.09741837935943878,-0.6939464343121237,-0.7239066550245324,-0.1139489377131276,-0.7601499787190777,-0.7914730782235868
-134.54159545898438,19.757736206054688,21.776708602905277,-2.4937007427215576,-5.79377555847168,-6.160838127136231,0.3189999163150787,-23.53397750854492,16.17158317565918,0.575,-1.1571424430869124,0.24619941420096314,0.053597561873204747,-0.5197731798328993,-1.9821099406831557,-2.0263852973415464,-0.11828038087840176,-0.776667561558104,-0.8083596223680997,0.5948504728113014,-0.1146743025228559,18.606323536813914,7.814598083496094,-1.8236732482911222,0.4004859924316406,-0.5006880364551114,-1.9853070539035311,-2.0268712162456146,0.13160406205069855,0.08405213220689663,0.07148326155721163,0.014862700626397909,0.0022962436954212305,0.00045816259500683663,-11.855980396270752,-29.19520378112793,-30.822559356689453,-2.503440182275557,-9.926535269517656,-10.134356081228074,-2.2006828784942627,-5.739871978759766,-6.061235427856445,-0.48238438280465123,-1.9821099406831557,-2.0263852973415464,-0.5197731798328993,-1.987796089366129,-2.027559147304333,-0.10977897375418388,-0.7436030293744185,-0.7745801948888735,0.006657613070756838,0.026150678240795477,0.026707378739120883,-0.5488948687709194,-3.718015146872092,-3.8729009744443674,-0.10143824921614421,-0.710511401723508,-0.7407945677994895,-0.11828038087840176,-0.776667561558104,-0.8083596223680997
-134.5669403076172,19.97597312927246,21.80520248413086,-2.4470131397247314,-5.746426105499268,-6.146152973175049,-2.5083396434783936,-21.680530548095703,15.74021339416504,0.5833333333333334,-1.0810023610526174,0.3333064736676512,0.11274800616353353,-0.5287815328416711,-1.9793323867359254,-2.0254457306235167,-0.12268689365208235,-0.7931619981142367,-0.8252383367899623,0.6598956511519618,-0.1088710798607519,18.547114367980893,5.681934356689453,1.7622184753419035,5.602512359619141,-0.5099674664625155,-1.9836143133774904,-2.0266504557713474,0.09194600602856533,0.053067445267491006,0.050709280762293536,0.015060554236097909,0.003011039613743884,0.000794434557380973,-12.10231065750122,-28.976184844970703,-30.71401071548462,-2.549837332312577,-9.918071566887452,-10.133252278856737,-2.2760159969329834,-5.739871978759766,-6.061235427856445,-0.49094401021739825,-1.9793323867359254,-2.0254457306235167,-0.5287815328416711,-1.9871405339261528,-2.027559147304333,-0.11402870264137152,-0.7601331486525641,-0.791468948686968,0.006783085201399324,0.02612586474661476,0.026700959885573746,-0.5701435132068576,-3.8006657432628206,-3.9573447434348403,-0.1055294493012892,-0.7270709061728926,-0.7576908940270256,-0.12268689365208235,-0.7931619981142367,-0.8252383367899623
-134.61126708984375,20.18074989318848,21.81572151184082,-2.4189248085021973,-5.9523606300354,-6.337562084197998,-4.101584434509277,-19.123188018798828,16.039016723632812,0.5916666666666667,-1.024377975706014,0.1679674523331416,-0.03324942392937125,-0.5373180159725545,-1.9779326579664824,-2.0257228091562616,-0.12716454378518696,-0.8096447702639574,-0.8421193601995978,0.7979444008566566,-0.03748277082653114,18.799347431559177,-24.712142944335938,-22.969093322753906,3.3705997467041016,-0.5192422676135466,-1.981772738185556,-2.0262831881417336,0.04708865039521669,0.08879560757243697,0.10143022765671608,0.014691257303487746,0.0031287145577709404,0.0006864556514063713,-12.245219469070435,-29.091331481933594,-30.85142946243286,-2.596211338067733,-9.908863690927781,-10.131415940708667,-2.388542652130127,-5.739871978759766,-6.061235427856445,-0.5002082832801003,-1.9779326579664824,-2.0254457306235167,-0.5373180159725545,-1.985327103074055,-2.027030159896853,-0.11835572153815108,-0.7766479214707771,-0.8083546419214824,0.006905406069685318,0.02610001640637845,0.026695688158306287,-0.5917786076907554,-3.8832396073538855,-4.041773209607412,-0.1096978516619567,-0.7436152986985097,-0.7745828120261661,-0.12716454378518696,-0.8096447702639574,-0.8421193601995978
-134.66357421875,20.37493324279785,21.802175521850582,-2.370603561401367,-5.842643737792969,-6.312374591827393,-4.015827655792236,-16.30777359008789,16.987102508544922,0.6,-0.9484439206829944,0.31858347883629,0.03819837605006349,-0.5452217153115794,-1.9752777956428467,-2.0254044893558443,-0.13170805807945013,-0.8261054185609812,-0.8589977309442298,0.8564688352337243,-0.06948586149432598,18.690537873855057,13.166027069091797,3.0224990844726562,5.798549652099609,-0.5282449540198425,-1.9797628766993145,-2.0259580540335316,0.053144819344536964,0.07725739999993039,0.0959627310968794,0.013881007663958738,0.003482401184497298,0.0006265918243132254,-12.227280378341675,-29.194103240966797,-31.10256862640381,-2.6412247700992126,-9.898814383496573,-10.129790270167659,-2.370603561401367,-5.746426105499268,-6.145640850067139,-0.5101303261405084,-1.9752777956428467,-2.0254044893558443,-0.5452217153115794,-1.9841616024681636,-2.02683194369049,-0.12275776282164977,-0.7931459454432714,-0.8252376257050953,0.007020948564115986,0.02607110134747159,0.02669105341252587,-0.6137888141082488,-3.965729727216357,-4.1261881285254765,-0.1139489377131276,-0.7601499787190777,-0.7914730782235868,-0.13170805807945013,-0.8261054185609812,-0.8589977309442298
-134.73355102539062,20.56379127502441,21.76823616027832,-2.342466354370117,-5.8286237716674805,-6.210289001464844,-5.324856758117676,-14.254087448120115,18.163986206054688,0.6083333333333333,-0.893610520677345,0.3719470040448547,0.1849085506575241,-0.5526684696505573,-1.972178237275806,-2.0238635847670317,-0.13631362865987143,-0.8425402372049462,-0.8758632608172884,0.8544110781410675,0.007965964221998455,18.601906017905467,1.6823959350585938,12.25027084350586,3.37646484375,-0.5367525827218522,-1.9773662036608433,-2.02536438224884,0.060135629109766456,0.07647292855272386,0.08731853164823754,0.013011525054429813,0.0038067778556010448,0.0009261960771431705,-12.07270860671997,-29.163829803466797,-31.167216777801514,-2.6837629136092613,-9.886831018304216,-10.1268219112442,-2.342466354370117,-5.746426105499268,-6.146152973175049,-0.5197731798328993,-1.972178237275806,-2.0238635847670317,-0.5526684696505573,-1.9821099406831557,-2.0263852973415464,-0.1272307010109985,-0.8096239971404451,-0.8421156622238357,0.007129254757029494,0.02603958813892921,0.026684354073705306,-0.6361535050549926,-4.048119985702225,-4.210578311119178,-0.11828038087840176,-0.776667561558104,-0.8083596223680997,-0.13631362865987143,-0.8425402372049462,-0.8758632608172884
-134.81100463867188,20.74491310119629,21.7238712310791,-2.364500045776367,-5.929899215698242,-6.186924457550049,-5.715217113494873,-12.796097755432127,18.27758407592773,0.6166666666666667,-0.8892640905060771,0.3102516335271064,0.25128997817964116,-0.5600790037381079,-1.9695928069964135,-2.021769501615535,-0.14098095369102231,-0.858953510596583,-0.8927113399974178,0.8426361815872216,0.10967202290744633,18.659324026789704,-12.153053283691406,2.8037452697753906,-2.64404296875,-0.544813747502894,-1.9748627769234948,-2.0244412231036377,0.042908711713494904,0.08306792846340984,0.08254467461245181,0.012329933533832252,0.004017249002331423,0.0016621628829330537,-11.94350790977478,-29.29995346069336,-31.193303108215332,-2.7240687375144703,-9.874313884617473,-10.122206115518189,-2.342466354370117,-5.746426105499268,-6.146152973175049,-0.5287815328416711,-1.9695928069964135,-2.021769501615535,-0.5600790037381079,-1.9793323867359254,-2.0257228091562616,-0.13177081557352263,-0.826081186948141,-0.8589860057496992,0.007231927658771672,0.026006342358518564,0.026672218404860972,-0.6588540778676132,-4.130405934740705,-4.294930028748496,-0.12268689365208235,-0.7931619981142367,-0.8252383367899623,-0.14098095369102231,-0.858953510596583,-0.8927113399974178
-134.8842010498047,20.91917991638184,21.677473068237305,-2.50464129447937,-5.992616653442383,-6.028548240661621,-5.154726505279541,-12.08458423614502,17.865936279296875,0.625,-1.0019196973609699,0.28799514408378624,0.45061295011490365,-0.5684283345494493,-1.9671928474623819,-2.0180143936979107,-0.1457178564789344,-0.8753467843254361,-0.909528126611567,0.6619942452325196,0.21730997452205267,18.644173207118076,-7.526092529296875,19.005146026611328,-16.81694984436035,-0.5527431078444497,-1.972434869068786,-2.0229549557185167,0.06469584316296562,0.07101390013697637,0.12255393325205909,0.012189668587573275,0.004299124372916618,0.0031741648094436073,-12.001136064529419,-29.546144008636475,-31.075698375701904,-2.7637155392222486,-9.86217434534393,-10.114774778592583,-2.342466354370117,-5.8286237716674805,-6.028548240661621,-0.5373180159725545,-1.9671928474623819,-2.0180143936979107,-0.5684283345494493,-1.9779326579664824,-2.0257228091562616,-0.13637700813889303,-0.8425181441903808,-0.8758439637140201,0.0073334912122887215,0.025970548925741375,0.026647120040972843,-0.6818850406944652,-4.212590720951904,-4.379219818570101,-0.12716454378518696,-0.8096447702639574,-0.8421193601995978,-0.1457178564789344,-0.8753467843254361,-0.909528126611567
-134.9477081298828,21.08472442626953,21.637432098388672,-2.661590337753296,-6.07895040512085,-6.009546756744385,-4.1947550773620605,-11.878901481628418,16.580076217651367,0.6333333333333333,-1.129149468442514,0.24286869114820586,0.5085442802715097,-0.577837913453137,-1.9651689417028135,-2.0137765246956483,-0.1505331724243772,-0.8917231921729596,-0.9263095976506974,0.5347822995272877,0.25654282403893486,18.743115192752416,-10.360050201416016,2.2801780700683594,-18.833885192871094,-0.5608470873405662,-1.9698821258160524,-2.020565698826394,0.1350240530626352,0.10477591548717237,0.12829678198264718,0.012823761850696022,0.003997355646151823,0.004699498107669544,-12.243801593780518,-29.672733783721924,-30.74768304824829,-2.804235436702831,-9.849410629080262,-10.10282849413197,-2.342466354370117,-5.8286237716674805,-6.009546756744385,-0.5452217153115794,-1.9651689417028135,-2.0137765246956483,-0.577837913453137,-1.9752777956428467,-2.0254044893558443,-0.14105073386673112,-0.8589338285721813,-0.8926820112042402,0.007440250337806161,0.025937338968484668,0.0266087773860588,-0.7052536693336555,-4.294669142860906,-4.463410056021201,-0.13170805807945013,-0.8261054185609812,-0.8589977309442298,-0.1505331724243772,-0.8917231921729596,-0.9263095976506974
-134.9970703125,21.23880386352539,21.60540008544922,-2.7470571994781494,-5.980196475982666,-6.034973621368408,-2.8871350288391118,-11.556530952453612,14.984496116638184,0.6416666666666666,-1.1831443181539054,0.38220670276694513,0.5215969779856842,-0.5876974494377528,-1.9619838858464222,-2.009429883212434,-0.1554306511696918,-0.9080730578883465,-0.9430548466774678,0.49533564430641597,0.15404374175899743,18.724083962150974,11.850471496582031,-3.0512237548828125,-10.256023406982422,-0.5693422341658009,-1.9672233438567672,-2.017370777597712,0.1785042447855871,0.09187702471531389,0.09625287947680733,0.01390815918631717,0.00393188068391815,0.005871456743618445,-12.6202552318573,-29.81028652191162,-30.470282077789307,-2.8467111708290043,-9.836116719283837,-10.08685388798856,-2.342466354370117,-5.8286237716674805,-6.009546756744385,-0.5526684696505573,-1.9619838858464222,-2.009429883212434,-0.5876974494377528,-1.972178237275806,-2.0238635847670317,-0.14579525248477943,-0.8753273564376542,-0.9094934343508877,0.00755601493092763,0.025904646231937327,0.02656021560446728,-0.7289762624238971,-4.376636782188271,-4.547467171754438,-0.13631362865987143,-0.8425402372049462,-0.8758632608172884,-0.1554306511696918,-0.9080730578883465,-0.9430548466774678
-135.04653930664062,21.379011154174805,21.580232620239254,-2.815217971801758,-5.685558795928955,-6.017674922943115,-3.138564109802246,-10.945399284362791,13.227232933044434,0.65,-1.2188450123903465,0.7135955013563917,0.57694213682172,-0.5978544912076724,-1.9560372566684523,-2.004622032072253,-0.16041277192975573,-0.9243733683605836,-0.9597600302780699,0.4514560729565578,-0.06675145930224353,18.542420866278196,35.35652160644531,2.0758438110351562,-8.179292678833008,-0.578379438477224,-1.9639951477352966,-2.013522467058756,0.18341307298305798,0.14859252231330058,0.07409883428365158,0.01500272173213635,0.005251430034938925,0.006786429744026958,-13.09300684928894,-29.667221546173096,-30.277667999267578,-2.8918971923861196,-9.819975738676483,-10.06761233529378,-2.364500045776367,-5.685558795928955,-6.009546756744385,-0.5600790037381079,-1.9560372566684523,-2.004622032072253,-0.5978544912076724,-1.9695928069964135,-2.021769501615535,-0.15061508113875627,-0.8916939826687817,-0.9262727882430439,0.007680989351058889,0.02586206977711017,0.026503720120195872,-0.7530754056937814,-4.458469913343909,-4.63136394121522,-0.14098095369102231,-0.858953510596583,-0.8927113399974178,-0.16041277192975573,-0.9243733683605836,-0.9597600302780699
-135.097412109375,21.50908470153809,21.56243705749512,-2.8921093940734863,-5.652349948883057,-5.949735641479492,-3.67799973487854,-10.673965454101562,11.800006866455078,0.6583333333333333,-1.2623698458676769,0.7803068563350868,0.6817098035638951,-0.6083742399232364,-1.9495346995323266,-1.9989411170425542,-0.16548255726244937,-0.9406194908566863,-0.9764178729200912,0.3673251084092094,-0.06595327094388545,18.503298184590342,3.9850616455078125,8.152713775634766,-9.226970672607422,-0.5880384857142495,-1.9599835262424794,-2.0089567901441603,0.14927010157152618,0.19488054250043604,0.03406058053261143,0.01580049739721213,0.0072044310612718356,0.007493291592390198,-13.62061619758606,-29.38967227935791,-30.04047918319702,-2.9401924285712475,-9.799917631212397,-10.044783950720802,-2.50464129447937,-5.652349948883057,-5.949735641479492,-0.5684283345494493,-1.9495346995323266,-1.9989411170425542,-0.6083742399232364,-1.9671928474623819,-2.0180143936979107,-0.1555154018530417,-0.9080271787208025,-0.9430140948275787,0.007812651738357622,0.025803521979518768,0.02644140077121582,-0.7775770092652085,-4.540135893604012,-4.715070474137893,-0.1457178564789344,-0.8753467843254361,-0.909528126611567,-0.16548255726244937,-0.9406194908566863,-0.9764178729200912
-135.14535522460938,21.63170051574707,21.548309326171875,-2.9542744159698486,-5.67783260345459,-5.926255702972412,-3.428261041641236,-10.349664688110352,10.846489906311035,0.6666666666666666,-1.2903208971368825,0.7878052686453456,0.740757248040933,-0.6191269140660437,-1.9429696556269487,-1.9927681399755464,-0.17064194821299974,-0.9568109046535775,-0.993024274086554,0.3161358557370177,-0.04164316358224689,18.52690031045229,-3.0579185485839844,2.8175926208496094,-7.459802627563477,-0.5981782016175684,-1.9551388878753926,-2.0039075393996875,0.1156389898881196,0.19936439542754122,0.046976713858669604,0.016328548830770423,0.009052074126926764,0.00832398976297351,-14.070249319076538,-29.074888229370117,-29.938186645507812,-2.990891008087842,-9.775694439376963,-10.019537696998437,-2.661590337753296,-5.652349948883057,-5.926255702972412,-0.577837913453137,-1.9429696556269487,-1.9927681399755464,-0.6191269140660437,-1.9651689417028135,-2.0137765246956483,-0.16050022019985474,-0.9243200027864308,-0.9597133243225761,0.007948719211421706,0.02572863261072128,0.02637222654846566,-0.8025011009992737,-4.621600013932154,-4.79856662161288,-0.1505331724243772,-0.8917231921729596,-0.9263095976506974,-0.17064194821299974,-0.9568109046535775,-0.993024274086554
-135.1858367919922,21.74834442138672,21.537128448486328,-3.0835416316986084,-5.837002754211426,-5.838456153869629,-2.711779356002808,-10.073542594909668,10.123502731323242,0.675,-1.384092977346818,0.6627212664110633,0.8627056172089524,-0.6306610222106005,-1.9374469784068564,-1.985578926498805,-0.1758974567314214,-0.9729562961403013,-1.0095707651407106,0.17188977836049468,0.09552030378174615,18.620660031087855,-19.100418090820312,10.535945892333984,-15.512065887451172,-0.608742823369061,-1.9495944952162012,-1.9982680197603186,0.1296753936824242,0.13971435437485394,0.07865724334950355,0.016954617180740202,0.009829298233634822,0.00944292716244125,-14.49220061302185,-28.832940578460693,-29.767096042633057,-3.0437141168453055,-9.747972476081006,-9.991340098801594,-2.7470571994781494,-5.652349948883057,-5.838456153869629,-0.5876974494377528,-1.9374469784068564,-1.985578926498805,-0.6306610222106005,-1.9619838858464222,-2.009429883212434,-0.16557307706126362,-0.9405666235798991,-0.9763655578205788,0.00808999406947779,0.02564675260666225,0.026293765323259707,-0.827865385306318,-4.7028331178994955,-4.881827789102894,-0.1554306511696918,-0.9080730578883465,-0.9430548466774678,-0.1758974567314214,-0.9729562961403013,-1.0095707651407106
-135.2095489501953,21.856910705566406,21.53194046020508,-3.1094212532043457,-5.79846715927124,-5.804633140563965,-0.9114569425582886,-9.87182903289795,8.938714981079102,0.6833333333333333,-1.373514175846946,0.7358978371900067,0.9291826188513239,-0.6421069736759917,-1.931314496430273,-1.9778357380083773,-0.18124834817872135,-0.9890505836105536,-1.0260527296241138,0.14740384218998237,0.08572986458664689,18.58242328670847,4.624271392822266,4.0587615966796875,-3.1055545806884766,-0.6196247282167089,-1.9434606173329716,-1.9919491907195073,0.1250974994506231,0.08194973489365105,0.08605619104942712,0.01752152726798036,0.00973395450287792,0.010605758261584542,-14.854564666748047,-28.651211261749268,-29.536755561828613,-3.0981236410835447,-9.717303086664858,-9.959745953597537,-2.815217971801758,-5.652349948883057,-5.804633140563965,-0.5978544912076724,-1.931314496430273,-1.9778357380083773,-0.6421069736759917,-1.9560372566684523,-2.004622032072253,-0.17073661646306953,-0.9567621287243405,-0.992965134409908,0.008235997845533229,0.025565671864602273,0.026205582562441956,-0.8536830823153476,-4.7838106436217025,-4.96482567204954,-0.16041277192975573,-0.9243733683605836,-0.9597600302780699,-0.18124834817872135,-0.9890505836105536,-1.0260527296241138
-135.23175048828125,21.960559844970703,21.530447006225582,-3.0719947814941406,-5.595931053161621,-5.791776657104492,-0.9474963545799256,-9.737407684326172,8.247977256774902,0.6916666666666667,-1.3000813697963731,0.9705727555185568,0.9738422914415636,-0.6529409850909614,-1.9232263901342852,-1.9697203855796976,-0.18668952305447936,-1.005077470195006,-1.0424670661706112,0.18994092646801325,-0.03892090440726375,18.427347662865813,24.304332733154297,1.5427780151367188,4.491176605224609,-0.6306420269933667,-1.9368984440261379,-1.984968861420996,0.09405754946967526,0.10161114197211316,0.07176833963973206,0.01772809255264861,0.010185050096404693,0.01161703832336499,-15.11134147644043,-28.561583518981934,-29.31085729598999,-3.1532101349668333,-9.68449222013069,-9.92484430710498,-2.8921093940734863,-5.595931053161621,-5.791776657104492,-0.6083742399232364,-1.9232263901342852,-1.9697203855796976,-0.6529409850909614,-1.9495346995323266,-1.9989411170425542,-0.17599196668801426,-0.972902949091225,-1.0095065415884161,0.00838371300317756,0.02548099450816255,0.026108915049064017,-0.8799598334400713,-4.864514745456125,-5.04753270794208,-0.16548255726244937,-0.9406194908566863,-0.9764178729200912,-0.18668952305447936,-1.005077470195006,-1.0424670661706112
-135.26498413085938,22.05704689025879,21.52811050415039,-3.070279836654663,-5.5849928855896,-5.791647911071777,-2.180040121078491,-9.076570510864258,7.687548637390137,0.7,-1.263042129838805,1.0114006961032445,1.0052140670386818,-0.6634663361729515,-1.9147980510000915,-1.9613436016877086,-0.19221840918925395,-1.0210341206200069,-1.0588115961846756,0.20332074161239247,-0.03688419416656493,18.4192537171074,1.3125801086425781,0.01544952392578125,0.2057933807373047,-0.6416604462433098,-1.929951114319691,-1.977449358350027,0.06000441164208163,0.11511651150500021,0.056812228039321566,0.017547750429184578,0.01120676637463654,0.01245026762529267,-15.289511919021606,-28.494226455688477,-29.152769565582275,-3.208302231216549,-9.649755571598455,-9.887246791750135,-2.9542744159698486,-5.5849928855896,-5.791647911071777,-0.6191269140660437,-1.9147980510000915,-1.9613436016877086,-0.6634663361729515,-1.9429696556269487,-1.9927681399755464,-0.18133913707337518,-0.9889858750438891,-1.025985286241333,0.008529876449868384,0.02538803746677493,0.02600521614972046,-0.9066956853668758,-4.944929375219446,-5.129926431206665,-0.17064194821299974,-0.9568109046535775,-0.993024274086554,-0.19221840918925395,-1.0210341206200069,-1.0588115961846756
-135.3039093017578,22.14188003540039,21.529375076293945,-3.048935651779175,-5.668785572052002,-5.732234954833984,-3.080048084259033,-8.35991096496582,6.431222915649414,0.7083333333333334,-1.2069152126305802,0.9576825130689359,1.0949210839900925,-0.6735239629448729,-1.9068173633911836,-1.9522192593211245,-0.19783110888046124,-1.0369242653149333,-1.0750800900123516,0.2002511378611664,0.07673800932394381,18.426476472881816,-10.055122375488281,7.129554748535156,2.5613021850585938,-0.6525398560190756,-1.9227206558725378,-1.9693395822191426,0.02208853955543409,0.11559944722697266,0.03837151239410687,0.01693672060466191,0.012315202168216244,0.013163274078075715,-15.384173154830933,-28.48517942428589,-28.958748817443848,-3.262699280095378,-9.613603279362689,-9.846697911095713,-3.048935651779175,-5.5849928855896,-5.732234954833984,-0.6306610222106005,-1.9068173633911836,-1.9522192593211245,-0.6735239629448729,-1.9374469784068564,-1.985578926498805,-0.18677696920686745,-1.00500854717616,-1.0423964494264926,0.008670933658076457,0.025285570077257964,0.025895584167828636,-0.9338848460343373,-5.025042735880801,-5.211982247132463,-0.1758974567314214,-0.9729562961403013,-1.0095707651407106,-0.19783110888046124,-1.0369242653149333,-1.0750800900123516
-135.34996032714844,22.21308708190918,21.53355407714844,-3.0684194564819336,-5.787913799285889,-5.751704216003418,-4.012303829193115,-7.440435886383057,5.029073715209961,0.7166666666666667,-1.1919753775786321,0.8699084881047607,1.104969507442643,-0.6834570910913615,-1.8995681259903106,-1.943011180092436,-0.20352658463955592,-1.0527539996981858,-1.0912718498464553,0.19927655631289448,0.15973539138527693,18.523898034525963,-14.295387268066406,-2.3363113403320312,-2.3380565643310547,-0.6630990697952278,-1.9151448853892288,-1.9608260329378688,0.02197560912060731,0.10202824916619063,0.030848302546201377,0.016333379145213538,0.012637942774240574,0.013785436036873147,-15.369050979614258,-28.43609046936035,-28.871996879577637,-3.315495348976139,-9.575724426946143,-9.804130164689344,-3.048935651779175,-5.5849928855896,-5.732234954833984,-0.6421069736759917,-1.8995681259903106,-1.943011180092436,-0.6834570910913615,-1.931314496430273,-1.9778357380083773,-0.19230279478849438,-1.0209680878877372,-1.0587366663676414,0.008806992188849302,0.025180284738126796,0.025780762627079165,-0.9615139739424718,-5.104840439438686,-5.293683331838207,-0.18124834817872135,-0.9890505836105536,-1.0260527296241138,-0.20352658463955592,-1.0527539996981858,-1.0912718498464553
-135.3948211669922,22.26838493347168,21.539987564086918,-3.045243501663208,-5.831342697143555,-5.815165042877197,-4.027069568634033,-6.250129222869873,3.522226572036743,0.725,-1.1347482253117747,0.8587614004170607,1.0712924069317085,-0.692913326302293,-1.892411780986835,-1.934083743368005,-0.20930086235874168,-1.0685240978730761,-1.107389214374522,0.2563479078282982,0.1744921697322337,18.58485318080631,-5.211467742919922,-7.615299224853516,2.7811145782470703,-0.673260340320488,-1.907364342300541,-1.9520756340097942,0.012804896002407187,0.11160022516730017,0.033660236053366814,0.01580412758868204,0.01216063167599417,0.014169735043018232,-15.30487322807312,-28.468966007232666,-28.88252878189087,-3.36630170160244,-9.536821711502705,-9.760378170048972,-3.045243501663208,-5.5849928855896,-5.732234954833984,-0.6529409850909614,-1.892411780986835,-1.934083743368005,-0.692913326302293,-1.9232263901342852,-1.9697203855796976,-0.19791329762449844,-1.0368627907402417,-1.075003963317723,0.008938641487498736,0.025079005515406306,0.02566270076751197,-0.9895664881224921,-5.184313953701208,-5.375019816588615,-0.18668952305447936,-1.005077470195006,-1.0424670661706112,-0.20930086235874168,-1.0685240978730761,-1.107389214374522
-135.43580627441406,22.305648803710938,21.54533195495605,-3.0079705715179443,-5.806176662445068,-5.776393890380859,-3.4601376056671143,-4.641261577606201,2.067120313644409,0.7333333333333333,-1.0642731262664453,0.9159109271853278,1.1396190242358193,-0.70178226902118,-1.8847791899269573,-1.9245869181660398,-0.21514904793391817,-1.0842305911224674,-1.1234274386925724,0.27214049950654057,0.19706400425979864,18.528566745642454,3.0199241638183594,4.652538299560547,4.472751617431641,-0.6830285971065317,-1.8996749022590755,-1.9430489405270628,0.025119862807935614,0.1049176343900854,0.03260188708981048,0.01518726285436705,0.01177254174486476,0.014491478783895945,-15.240849018096924,-28.679211616516113,-28.867146015167236,-3.415142985532659,-9.498374511295378,-9.715244702635314,-3.0079705715179443,-5.5849928855896,-5.732234954833984,-0.6634663361729515,-1.8847791899269573,-1.9245869181660398,-0.70178226902118,-1.9147980510000915,-1.9613436016877086,-0.2036052026003862,-1.0526934149257339,-1.0911960378221155,0.00906512973466888,0.02498091607078618,0.025541944671311767,-1.018026013001931,-5.263467074628669,-5.455980189110577,-0.19221840918925395,-1.0210341206200069,-1.0588115961846756,-0.21514904793391817,-1.0842305911224674,-1.1234274386925724
-135.46519470214844,22.33340072631836,21.555212020874023,-3.013554334640503,-5.840810775756836,-5.724829196929932,-2.326810121536255,-4.16878080368042,0.924622654914856,0.7416666666666667,-1.0372548544621933,0.912889518673115,1.2195417431621012,-0.7104260594750317,-1.8771717772713479,-1.9144240703063555,-0.2210692650962101,-1.0998736892663954,-1.139380972611792,0.24290867702029467,0.25552200216690063,18.51895823052827,-4.156093597412109,6.187763214111328,-0.6700515747070312,-0.6924205417669478,-1.892149647513327,-1.9336650342507924,0.025445287608972144,0.06929124149218688,0.03670362150397672,0.014573156666529218,0.011714357301690534,0.014869531873403917,-15.184123516082764,-28.93502950668335,-28.80032730102539,-3.462102708834739,-9.460748237566635,-9.668325171253962,-3.0079705715179443,-5.668785572052002,-5.724829196929932,-0.6735239629448729,-1.8771717772713479,-1.9144240703063555,-0.7104260594750317,-1.9068173633911836,-1.9522192593211245,-0.20937537378177745,-1.0684613286550115,-1.1073099131075386,0.009186489342819716,0.024883310295237805,0.025418077953078936,-1.0468768689088872,-5.342306643275058,-5.536549565537693,-0.19783110888046124,-1.0369242653149333,-1.0750800900123516,-0.2210692650962101,-1.0998736892663954,-1.139380972611792
-135.47821044921875,22.35246467590332,21.57354736328125,-3.019575595855713,-5.812012195587158,-5.68846607208252,-0.6975652575492859,-4.098315715789795,-0.4951615631580353,0.75,-1.0109047868690317,0.9729017200458774,1.2830951834460294,-0.7188502660322736,-1.8690642629376322,-1.9037316104443054,-0.22705968397981238,-1.1154492247908756,-1.155245402698828,0.22151191770850148,0.25450758199984036,18.478455869126453,3.455829620361328,4.3635749816893465,-0.7225513458251953,-0.7014858023844279,-1.8845990274226168,-1.9239675044754285,0.025339222062382025,0.02092605999839141,0.04836686793891168,0.013964799176472932,0.012058590725388443,0.015539884866324585,-15.154763460159302,-29.078256130218506,-28.756558418273926,-3.50742901192214,-9.422995137113084,-9.619837522377143,-3.0079705715179443,-5.787913799285889,-5.68846607208252,-0.6834570910913615,-1.8690642629376322,-1.9037316104443054,-0.7188502660322736,-1.8995681259903106,-1.943011180092436,-0.21522108880164764,-1.0841663205502001,-1.1233429756448339,0.009302811408169048,0.024782850380935258,0.025288678006672526,-1.0761054440082383,-5.420831602751001,-5.61671487822417,-0.20352658463955592,-1.0527539996981858,-1.0912718498464553,-0.22705968397981238,-1.1154492247908756,-1.155245402698828
-135.48056030273438,22.36498641967773,21.598892211914062,-2.9898297786712646,-5.691704750061035,-5.675300121307373,0.2093451470136642,-4.068782806396484,-1.582306742668152,0.7583333333333333,-0.9493153173251132,1.122719180081745,1.322616877556067,-0.7267612270099829,-1.8597082697702843,-1.892709803131338,-0.2331160275382289,-1.130946793705628,-1.171017984391589,0.24362635893730122,0.18143367361695717,18.3803759867066,14.436893463134766,1.5799140930176847,3.569498062133789,-0.7101466295681522,-1.8766270561786116,-1.9139072290832086,0.020126927063860184,0.06019494950378188,0.059092093482262194,0.013405460508115075,0.012838932180396518,0.016388171756700484,-15.076173782348633,-28.982047080993652,-28.68015432357788,-3.550733147840761,-9.383135280893057,-9.569536145416043,-2.9898297786712646,-5.691704750061035,-5.675300121307373,-0.692913326302293,-1.8597082697702843,-1.892709803131338,-0.7267612270099829,-1.892411780986835,-1.934083743368005,-0.22113897738138225,-1.0998048793516886,-1.1392922025538608,0.009414477932443857,0.024675974410411125,0.02515218228777729,-1.1056948869069112,-5.4990243967584425,-5.696461012769304,-0.20930086235874168,-1.0685240978730761,-1.107389214374522,-0.2331160275382289,-1.130946793705628,-1.171017984391589
-135.48292541503906,22.36836624145508,21.626277923583984,-2.928999662399292,-5.584524631500244,-5.670849800109863,0.1646611243486404,-3.461354255676269,-2.528048515319824,0.7666666666666666,-0.8577296004839292,1.2570581147223354,1.3528640049567207,-0.7339089736806823,-1.8492327854809314,-1.8814359364233655,-0.2392319356522346,-1.146357066917969,-1.1866966171951172,0.2954883053026139,0.12364808721534046,18.28477962247583,12.861614227294922,0.5340385437011719,7.299613952636719,-0.7183457590438301,-1.8679912570774306,-1.9033776676942806,0.03692496919437552,0.10722024546071461,0.04412617482652811,0.012751069770935625,0.014033496689509994,0.017082326372664942,-14.959929943084717,-28.735229015350342,-28.535839080810547,-3.591728795219151,-9.339956285387153,-9.516888338471404,-2.928999662399292,-5.584524631500244,-5.670849800109863,-0.70178226902118,-1.8492327854809314,-1.8814359364233655,-0.7339089736806823,-1.8847791899269573,-1.9245869181660398,-0.22712519204008083,-1.1153714731606672,-1.1551536831179798,0.009520634445289554,0.024559313486119123,0.025009868750304733,-1.1356259602004042,-5.576857365803336,-5.775768415589899,-0.21514904793391817,-1.0842305911224674,-1.1234274386925724,-0.2392319356522346,-1.146357066917969,-1.1866966171951172
-135.4871368408203,22.36247062683105,21.6538028717041,-2.914405584335327,-5.523660182952881,-5.639615058898926,-0.1114475429058075,-2.663061141967773,-3.30541467666626,0.775,-0.8133317940655798,1.34325083784557,1.4091882854056186,-0.7406867386312288,-1.838039028498885,-1.869692700711652,-0.2454043251408282,-1.1616740588221264,-1.2022773897010477,0.2919164437255467,0.0998879004364122,18.219200136548814,7.303733825683594,3.7481689453125,1.7512893676757812,-0.7261266529658399,-1.858643224791816,-1.8923988242034036,0.04864705611007162,0.13822652481923045,0.030894631949138752,0.011962626564422823,0.01554130694902097,0.01767337807459254,-14.8663649559021,-28.452712535858154,-28.399060249328613,-3.6306332648291995,-9.29321612395908,-9.461994121017018,-2.914405584335327,-5.523660182952881,-5.639615058898926,-0.7104260594750317,-1.838039028498885,-1.869692700711652,-0.7406867386312288,-1.8771717772713479,-1.9144240703063555,-0.23317624748146284,-1.1308601667005989,-1.1709236733196748,0.009620190232698155,0.024430085358978948,0.0248626241656454,-1.1658812374073142,-5.654300833502995,-5.854618366598374,-0.2210692650962101,-1.0998736892663954,-1.139380972611792,-0.2454043251408282,-1.1616740588221264,-1.2022773897010477
-135.4926300048828,22.34478759765625,21.678625106811523,-2.884401798248291,-5.557640075683594,-5.748227596282959,-0.0937096923589706,-1.4608182907104492,-4.0967793464660645,0.7833333333333333,-0.7542088601662735,1.3339743779021118,1.3259172196600222,-0.7469718124659478,-1.8269225753497007,-1.8586433905478184,-0.2516290902447111,-1.176898413616707,-1.2177660846222795,0.3699243393649939,0.07600042787005341,18.301562716094146,-4.077587127685547,-13.033504486083984,3.600454330444336,-0.7334358035640232,-1.8485933844074869,-1.881242688251696,0.05569014958596399,0.11776211543854803,0.03988282705752782,0.011105306879663776,0.016763239335112805,0.017898422827067367,-14.737212419509888,-28.169541835784912,-28.42245864868164,-3.6671790178201156,-9.242966922037434,-9.40621344125848,-2.884401798248291,-5.523660182952881,-5.639615058898926,-0.7188502660322736,-1.8269225753497007,-1.8586433905478184,-0.7469718124659478,-1.8690642629376322,-1.9037316104443054,-0.23928821251116306,-1.1462651115706612,-1.1866006957217725,0.009712621188435126,0.024290497348077474,0.02471348161087678,-1.1964410625558153,-5.731325557853306,-5.933003478608862,-0.22705968397981238,-1.1154492247908756,-1.155245402698828,-0.2516290902447111,-1.176898413616707,-1.2177660846222795
-135.49563598632812,22.31179618835449,21.693819046020508,-2.8317058086395264,-5.597931861877441,-5.854120254516602,0.5928158760070801,0.6158174276351929,-4.609320163726807,0.7916666666666666,-0.6733947419999677,1.318619248326062,1.2467720815432841,-0.7525834353159475,-1.8159340816136502,-1.8482536232016242,-0.257900618872344,-1.192031197630154,-1.2331681981489597,0.4639244569118681,0.06499490720895278,18.37776940816937,-4.835014343261719,-12.70711898803711,6.323518753051758,-0.740182437420758,-1.8379673481426901,-1.8701470908031594,0.058177211635169826,0.06300579478238032,0.08607023144919121,0.010242313193305494,0.017371202676447026,0.017666207406929816,-14.549342632293701,-27.955461502075195,-28.588112831115723,-3.7009121871037896,-9.189836740713451,-9.350735454015798,-2.8317058086395264,-5.523660182952881,-5.639615058898926,-0.7267612270099829,-1.8159340816136502,-1.8482536232016242,-0.7525834353159475,-1.8597082697702843,-1.892709803131338,-0.24545639948966938,-1.1615815061385169,-1.2021852548117988,0.00979785880821356,0.02414575059952042,0.02456628871504303,-1.2272819974483469,-5.807907530692584,-6.010926274058994,-0.2331160275382289,-1.130946793705628,-1.171017984391589,-0.257900618872344,-1.192031197630154,-1.2331681981489597
