Euler_X,Euler_Y,Euler_Z,Acc_X,Acc_Y,Acc_Z,Gyr_X,Gyr_Y,Gyr_Z,time_seconds,filtered_accel_x,filtered_accel_y,filtered_accel_z,Vel_X,Vel_Y,Vel_Z,Displacement_X,Displacement_Y,Displacement_Z,Acc_Global_X,Acc_Global_Y,Acc_Global_Z,Dy_dt,Dz_dt,Dx_dt,Vel_X_Roll_Mean,Vel_Y_Roll_Mean,Vel_Z_Roll_Mean,Acc_Global_X_Roll_Std,Acc_Global_Y_Roll_Std,Acc_Global_Z_Roll_Std,Vel_X_Roll_Std,Vel_Y_Roll_Std,Vel_Z_Roll_Std,Acc_Global_X_Roll_Sum,Acc_Global_Y_Roll_Sum,Acc_Global_Z_Roll_Sum,Vel_X_Roll_Sum,Vel_Y_Roll_Sum,Vel_Z_Roll_Sum,Acc_Global_X_Roll_Max,Acc_Global_Y_Roll_Max,Acc_Global_Z_Roll_Max,Vel_X_Roll_Max,Vel_Y_Roll_Max,Vel_Z_Roll_Max,Vel_X_Roll_Min,Vel_Y_Roll_Min,Vel_Z_Roll_Min,Displacement_X_Roll_Mean,Displacement_Y_Roll_Mean,Displacement_Z_Roll_Mean,Displacement_X_Roll_Std,Displacement_Y_Roll_Std,Displacement_Z_Roll_Std,Displacement_X_Roll_Sum,Displacement_Y_Roll_Sum,Displacement_Z_Roll_Sum,Displacement_X_Roll_Max,Displacement_Y_Roll_Max,Displacement_Z_Roll_Max,Displacement_X_Roll_Min,Displacement_Y_Roll_Min,Displacement_Z_Roll_Min
-135.01918029785156,12.959189414978027,20.900089263916016,-2.840319395065308,-7.6686859130859375,-7.08587646484375,-4.64971399307251,1.816049575805664,-3.716484785079956,0.0,-2.816357802537845,-7.603991101865161,-7.026098369167077,0.0,0.0,0.0,0.0,0.0,0.0,-0.5484024924864958,0.23545635027645578,20.61414819353763,,,,,,,,,,,,,,,,,,,,,,,,,,,,,,,,,,,,,,,,,,
-135.05641174316406,12.927301406860352,20.914630889892575,-2.7430577278137207,-7.47901439666748,-7.140081405639648,-3.212127685546875,0.4693681001663208,-4.510615348815918,0.008333333333333333,-2.6721962718840624,-7.287077622434601,-6.960795766962461,-0.02226830226570052,-0.060725646853621675,-0.05800663139135384,-0.00018556918554750435,-0.0005060470571135139,-0.00048338859492794866,-0.4263942929755731,0.10451269368292031,20.49868792353,22.76058197021495,-6.5045928955078125,11.671400070190483,,,,,,,,,,,,,,,,,,,,,,,,,,,,,,,,,,,,,,,
-135.09945678710938,12.902173042297363,20.93375396728516,-2.664557456970215,-7.333792209625244,-7.21802282333374,-3.85615873336792,-0.4375807642936706,-4.419210910797119,0.016666666666666666,-2.548676498681542,-7.018517395751425,-6.919127912119002,-0.0435072730880467,-0.11921329181821688,-0.11566603065901218,-0.0005481297946145602,-0.0014994911555986546,-0.0014472721837530502,-0.31560900406846343,-0.01396248567288782,20.434708188894742,17.426662445068253,-9.352970123291016,9.420032501220703,,,,,,,,,,,,,,,,,,,,,,,,,,,,,,,,,,,,,,,
-135.14791870117188,12.881481170654297,20.95125389099121,-2.608072280883789,-7.456634521484375,-7.281828880310059,-4.63800859451294,-0.7224367260932922,-3.8057503700256343,0.025,-2.448693547189453,-7.019259584910909,-6.863146093241643,-0.06391305264795881,-0.17770712169247446,-0.17285891476935922,-0.0010807385666808836,-0.002980383836369275,-0.0028877631401643773,-0.25848871774111437,0.062194354424990224,20.550474230521797,-14.741077423095703,-7.656726837158203,6.778221130371094,,,,,,,,,,,,,,,,,,,,,,,,,,,,,,,,,,,,,,,
-135.19065856933594,12.862629890441896,20.962810516357425,-2.5752410888671875,-7.543605327606201,-7.344702243804932,-3.617421865463257,-0.340592473745346,-3.261896133422852,0.03333333333333333,-2.3734893815782825,-6.9834022412003405,-6.806184871956571,-0.08369213082777782,-0.23590214036914398,-0.22957712203566397,-0.0017781729902456988,-0.004946235006112141,-0.00480090582379491,-0.21892535472619346,0.10425392218939986,20.646221752225166,-10.43649673461914,-7.544803619384766,3.9397430419921875,-0.04267615176589677,-0.11870964014669139,-0.11522173977107783,0.10708617671589524,0.1227147204416711,0.10437859348180605,0.033059573163078795,0.09309828240105791,0.0907593145795967,-13.43124794960022,-37.48173236846924,-36.07051181793213,-0.21338075882948385,-0.5935482007334569,-0.5761086988553892,-2.5752410888671875,-7.333792209625244,-7.08587646484375,0.0,0.0,0.0,-0.08369213082777782,-0.23590214036914398,-0.22957712203566397,-0.0007185221074177293,-0.001986431411038717,-0.0019238659485280572,0.0007217006188302165,0.0020076688685952363,0.0019499892980913282,-0.0035926105370886465,-0.009932157055193585,-0.009619329742640285,0.0,0.0,0.0,-0.0017781729902456988,-0.004946235006112141,-0.00480090582379491
-135.23135375976562,12.841952323913574,20.96796417236328,-2.551433563232422,-7.50004768371582,-7.343990802764893,-3.3773393630981445,0.2976246178150177,-2.7799642086029053,0.041666666666666664,-2.3081496755265123,-6.81770170367651,-6.686140087052487,-0.10292671145716542,-0.2927163212331149,-0.28529495609443467,-0.0026358955857220773,-0.007385537683054766,-0.007178363791248532,-0.19919814457491353,0.08722450693490937,20.61034450289819,5.226917266845703,0.0853729248046875,2.856903076171875,-0.06326149405732986,-0.17725290439331437,-0.17228073098996477,0.07683854566897737,0.07883631231377336,0.08758436838945342,0.03186626718878363,0.0918135858680705,0.08988773544252998,-13.142362117767334,-37.31309413909912,-36.32862615585327,-0.3163074702866493,-0.8862645219665719,-0.8614036549498238,-2.551433563232422,-7.333792209625244,-7.140081405639648,-0.02226830226570052,-0.060725646853621675,-0.05800663139135384,-0.10292671145716542,-0.2927163212331149,-0.28529495609443467,-0.0012457012245621448,-0.00346353894764967,-0.0033595387067777635,0.000981563174427752,0.0027576322523091834,0.0026838656401741504,-0.006228506122810724,-0.01731769473824835,-0.016797693533888818,-0.00018556918554750435,-0.0005060470571135139,-0.00048338859492794866,-0.0026358955857220773,-0.007385537683054766,-0.007178363791248532
-135.2768096923828,12.817011833190918,20.96272850036621,-2.496457815170288,-7.645248889923096,-7.398775100708008,-3.494678497314453,1.5689616203308103,-2.378307580947876,0.05,-2.2126633973904277,-6.840951580429072,-6.622159552118562,-0.12136557310208565,-0.34972425107002386,-0.340479619028756,-0.003647275361572791,-0.01029990644197163,-0.010015693949821498,-0.1504147986006202,0.18404321228370762,20.73554386229931,-17.424144744873047,-6.574115753173828,6.597089767456055,-0.08308094822460688,-0.23505262523659481,-0.2287753285174452,0.06275430242838625,0.11447576175041985,0.06930998784615161,0.030795390682364056,0.09108054570922967,0.08887254677542109,-12.895762205123901,-37.479328632354736,-36.58731985092163,-0.4154047411230344,-1.175263126182974,-1.143876642587226,-2.496457815170288,-7.333792209625244,-7.21802282333374,-0.0435072730880467,-0.11921329181821688,-0.11566603065901218,-0.12136557310208565,-0.34972425107002386,-0.340479619028756,-0.0019380424597672022,-0.005422310824621293,-0.005265999777756473,0.0012349961059814631,0.0035079683743109553,0.003415835665538085,-0.009690212298836012,-0.027111554123106466,-0.026329998888782367,-0.0005481297946145602,-0.0014994911555986546,-0.0014472721837530502,-0.003647275361572791,-0.01029990644197163,-0.010015693949821498
-135.3091583251953,12.7826566696167,20.94983291625977,-2.3694217205047607,-7.593695163726807,-7.50862455368042,-1.897015929222107,2.953718423843384,-2.431046962738037,0.058333333333333334,-2.047001769980433,-6.667707258399718,-6.612878411543343,-0.13842392118525593,-0.40528847822335484,-0.3955869391249505,-0.00480080803811659,-0.013677310427166254,-0.013312251775862753,0.006404081029140826,0.12856327551126587,20.74806375412377,6.1864471435546875,-13.181934356689453,15.244331359863281,-0.10206427784404873,-0.2922676625176224,-0.2847595102106329,0.09357396497757652,0.07451789203653611,0.08511676027734655,0.029531166689723665,0.08996715407126793,0.08796956214163036,-12.600626468658447,-37.7392315864563,-36.87792158126831,-0.5103213892202436,-1.4613383125881119,-1.4237975510531644,-2.3694217205047607,-7.456634521484375,-7.281828880310059,-0.06391305264795881,-0.17770712169247446,-0.17285891476935922,-0.13842392118525593,-0.40528847822335484,-0.3955869391249505,-0.0027885781084676085,-0.007857874678934814,-0.0076389956961784135,0.0014787982129449567,0.004252058804297552,0.004143539423350472,-0.013942890542338042,-0.03928937339467407,-0.03819497848089207,-0.0010807385666808836,-0.002980383836369275,-0.0028877631401643773,-0.00480080803811659,-0.013677310427166254,-0.013312251775862753
-135.33929443359375,12.745298385620115,20.933897018432617,-2.3306188583374023,-7.526242256164551,-7.440802097320557,-1.3766756057739258,3.510226249694824,-2.532825231552124,0.06666666666666667,-1.971307086124285,-6.480619609808848,-6.426600277152243,-0.15485148023629164,-0.45929364163842856,-0.44914194143455255,-0.006091237040085687,-0.017504757440819824,-0.017055101287817356,0.013506523807369688,0.1369516037250903,20.646175729696182,8.094348907470703,8.138694763183594,4.656343460083008,-0.12025196336171531,-0.3485849665068132,-0.3400161155436715,0.10932324073210105,0.05785706817594542,0.06962081580501978,0.028130821416260388,0.08844733148997766,0.08687340462402719,-12.32317304611206,-37.808839321136475,-37.03689479827881,-0.6012598168085765,-1.742924832534066,-1.7000805777183576,-2.3306188583374023,-7.50004768371582,-7.343990802764893,-0.08369213082777782,-0.23590214036914398,-0.22957712203566397,-0.15485148023629164,-0.45929364163842856,-0.44914194143455255,-0.003790677803148569,-0.010762749399824922,-0.010472463325709011,0.001711519627855959,0.004985001521632887,0.004863687271119928,-0.018953389015742846,-0.05381374699912461,-0.052362316628545055,-0.0017781729902456988,-0.004946235006112141,-0.00480090582379491,-0.006091237040085687,-0.017504757440819824,-0.017055101287817356
-135.3650665283203,12.704873085021973,20.917341232299805,-2.297682523727417,-7.630072593688965,-7.477298259735107,-1.0103663206100464,3.774924039840698,-2.634411334991455,0.075,-1.9024051743226882,-6.465546126554309,-6.345932041588986,-0.17070485668898072,-0.5131731926930478,-0.5020247084477941,-0.007513777512493859,-0.021781200713261888,-0.021238640524882307,0.03780351623719492,0.20296261827070136,20.735416198003097,-12.459640502929688,-4.379539489746094,3.952360153198242,-0.13765450853395586,-0.404039176971594,-0.3945056328260976,0.10958756538940004,0.0636987088982537,0.06486954042355854,0.02673949631181203,0.08704559062955153,0.08572110175335004,-12.04561448097229,-37.89530658721924,-37.169490814208984,-0.6882725426697793,-2.02019588485797,-1.972528164130488,-2.297682523727417,-7.50004768371582,-7.343990802764893,-0.10292671145716542,-0.2927163212331149,-0.28529495609443467,-0.17070485668898072,-0.5131731926930478,-0.5020247084477941,-0.004937798707598201,-0.014129742541254871,-0.013760010265926489,0.0019332008252369863,0.00570727991833369,0.00557507843108127,-0.024688993537991005,-0.07064871270627436,-0.06880005132963245,-0.0026358955857220773,-0.007385537683054766,-0.007178363791248532,-0.007513777512493859,-0.021781200713261888,-0.021238640524882307
-135.3751220703125,12.66282081604004,20.91095924377441,-2.2244975566864014,-7.727170944213867,-7.401219844818115,0.7764442563056946,3.127882480621338,-3.7174065113067623,0.08333333333333333,-1.794464097416573,-6.443080462678537,-6.154042461828428,-0.18565872416745216,-0.5668655298820356,-0.5533083956296977,-0.009060933547222627,-0.026505080128945518,-0.025849543821796453,0.055501528513451893,0.34290849278187063,20.733138226629148,-11.651802062988281,9.129409790039062,8.782196044921875,-0.15420091107601322,-0.4588690187013782,-0.4481083207331502,0.10061622323503203,0.07349560224328523,0.04785847762164924,0.025443419067605166,0.08572605301769327,0.08413907230115669,-11.71867847442627,-38.122429847717285,-37.22671985626221,-0.7710045553800661,-2.294345093506891,-2.240541603665751,-2.2244975566864014,-7.526242256164551,-7.398775100708008,-0.12136557310208565,-0.34972425107002386,-0.340479619028756,-0.18565872416745216,-0.5668655298820356,-0.5533083956296977,-0.00622280629989831,-0.017953651030433025,-0.017494246272036072,0.00214443011571052,0.006419608181905565,0.006273797824784226,-0.031114031499491553,-0.08976825515216512,-0.08747123136018037,-0.003647275361572791,-0.01029990644197163,-0.010015693949821498,-0.009060933547222627,-0.026505080128945518,-0.025849543821796453
-135.35855102539062,12.61692237854004,20.918926239013672,-2.203702688217163,-7.70060396194458,-7.408976078033447,3.425058603286743,2.226414918899536,-5.137510299682617,0.09166666666666666,-1.7400109031703836,-6.297398166571725,-6.047574964082693,-0.20015881502720537,-0.6193438479368,-0.6037048536637202,-0.010728923672449339,-0.03166627886175218,-0.030880417602327456,0.07336982772784663,0.3203813567460251,20.715984875116636,3.188037872314453,-0.9307479858398438,2.4953842163085938,-0.16995955946103716,-0.5127929380747334,-0.500753367660143,0.07006886179503745,0.08117331350449829,0.045538136453890814,0.024401663962268828,0.08470016200970971,0.08228969065215767,-11.425923347473145,-38.17778491973877,-37.23692083358765,-0.8497977973051858,-2.563964690373667,-2.5037668383007152,-2.203702688217163,-7.526242256164551,-7.401219844818115,-0.13842392118525593,-0.40528847822335484,-0.3955869391249505,-0.20015881502720537,-0.6193438479368,-0.6037048536637202,-0.0076391359620736204,-0.02222692551438913,-0.021667191002537268,0.002347131637009898,0.007123858830989536,0.00695765147182932,-0.0381956798103681,-0.11113462757194566,-0.10833595501268634,-0.00480080803811659,-0.013677310427166254,-0.013312251775862753,-0.010728923672449339,-0.03166627886175218,-0.030880417602327456
-135.33114624023438,12.568288803100586,20.933467864990234,-2.2028379440307617,-7.628353118896484,-7.405352115631103,4.7176690101623535,1.9636772871017456,-6.016861438751221,0.1,-1.7059671642385883,-6.107908844031978,-5.930693186702125,-0.21437520806252694,-0.6702430883037331,-0.6531272968862378,-0.012515383739637063,-0.03725163793094996,-0.03632314507637944,0.07388370579619924,0.26287005532534835,20.66398299255866,8.670101165771484,0.4348754882813566,0.10376930236816406,-0.18514981683649137,-0.565783860090809,-0.5522614392124006,0.05868060388211405,0.07812758189230544,0.03231933058484539,0.0234856263493086,0.08350093055845711,0.08058970497572887,-11.259339570999146,-38.21244287490845,-37.13364839553833,-0.9257490841824568,-2.828919300454045,-2.7613071960620026,-2.2028379440307617,-7.526242256164551,-7.401219844818115,-0.15485148023629164,-0.45929364163842856,-0.44914194143455255,-0.21437520806252694,-0.6702430883037331,-0.6531272968862378,-0.009182051102377714,-0.026941791015145877,-0.026269369662640603,0.002542383675765286,0.007818147801510083,0.007627702705424953,-0.04591025551188857,-0.1347089550757294,-0.131346848313203,-0.006091237040085687,-0.017504757440819824,-0.017055101287817356,-0.012515383739637063,-0.03725163793094996,-0.03632314507637944
-135.2999267578125,12.51307487487793,20.950870513916016,-2.158503532409668,-7.584661960601807,-7.4095587730407715,4.936158180236816,2.239926815032959,-6.712416172027588,0.10833333333333334,-1.6291285352645515,-5.948987869226173,-5.82263283139498,-0.22795127918973154,-0.7198179872139512,-0.7016492371478626,-0.014414977732884826,-0.043250121157732885,-0.04217022205261163,0.11309957553359197,0.2353137044713911,20.627561264613785,5.242938995361328,-0.5047988891602628,5.32012939453125,-0.19976977662717937,-0.6178887292059135,-0.6027628983550625,0.050902142854049044,0.05823189531552306,0.03193639975090862,0.022647066242162135,0.08170278511402591,0.07891435019161784,-11.087224245071411,-38.2708625793457,-37.102405071258545,-0.9988488831358968,-3.089443646029568,-3.0138144917753125,-2.158503532409668,-7.584661960601807,-7.401219844818115,-0.17070485668898072,-0.5131731926930478,-0.5020247084477941,-0.22795127918973154,-0.7198179872139512,-0.7016492371478626,-0.010846799240937543,-0.03209086375852849,-0.03129239381559946,0.0027307653115751043,0.008497544041640121,0.00828413998384455,-0.05423399620468772,-0.16045431879264244,-0.15646196907799728,-0.007513777512493859,-0.021781200713261888,-0.021238640524882307,-0.014414977732884826,-0.043250121157732885,-0.04217022205261163
-135.26693725585938,12.456258773803713,20.96795654296875,-2.030559062957764,-7.638569355010986,-7.399571895599365,5.325161457061768,2.4458651542663574,-6.919455528259277,0.11666666666666667,-1.4704218938130231,-5.888596007775857,-5.7014181264223565,-0.24020479497150674,-0.7688896206120833,-0.749161054868049,-0.01641668435764738,-0.04965753466283358,-0.04841323084317871,0.2118708464243852,0.3152270186249887,20.630365927674585,-6.4688873291015625,1.19842529296875,15.353336334228462,-0.21366976428368453,-0.6690320147897206,-0.6521901676391135,0.07839218155597001,0.05747179290146251,0.004484663820844482,0.02165485679209592,0.07977958338181054,0.0774255468900265,-10.820100784301758,-38.279359340667725,-37.0246787071228,-1.0683488214184227,-3.345160073948603,-3.2609508381955674,-2.030559062957764,-7.584661960601807,-7.399571895599365,-0.18565872416745216,-0.5668655298820356,-0.5533083956296977,-0.24020479497150674,-0.7688896206120833,-0.749161054868049,-0.012627380609968247,-0.037666130548442825,-0.03672731187925874,0.002910779666171044,0.009161247112403268,0.008928344395639668,-0.06313690304984124,-0.1883306527422141,-0.1836365593962937,-0.009060933547222627,-0.026505080128945518,-0.025849543821796453,-0.01641668435764738,-0.04965753466283358,-0.04841323084317871
-135.22157287597656,12.39613151550293,20.989660263061523,-1.9864189624786377,-7.5417561531066895,-7.36202335357666,6.528466701507568,2.2952535152435303,-7.489219665527344,0.125,-1.397246169987957,-5.678857527664505,-5.554027465583942,-0.2518485130547397,-0.8162134333426209,-0.7954446170812485,-0.01851542196643688,-0.056459313274022094,-0.05504193598552245,0.24058258011439632,0.2720736910096681,20.528741994974563,11.617584228515625,4.505825042724609,5.2968120574951705,-0.22690772206114204,-0.7189015954818376,-0.7006174119294236,0.10140231933801992,0.059739302664062036,0.020005255537198847,0.02044817931678858,0.07785986070356617,0.07582397995746308,-10.582022190093994,-38.09394454956055,-36.98548221588135,-1.1345386103057102,-3.5945079774091884,-3.503087059647118,-1.9864189624786377,-7.5417561531066895,-7.36202335357666,-0.20015881502720537,-0.6193438479368,-0.6037048536637202,-0.2518485130547397,-0.8162134333426209,-0.7954446170812485,-0.0145182782938111,-0.04365697717745814,-0.042565790312003936,0.0030806886068818306,0.009809144310878983,0.00955931222398134,-0.0725913914690555,-0.2182848858872907,-0.21282895156001969,-0.010728923672449339,-0.03166627886175218,-0.030880417602327456,-0.01851542196643688,-0.056459313274022094,-0.05504193598552245
-135.17625427246094,12.336318969726562,21.009775161743164,-1.9707051515579224,-7.4049248695373535,-7.362142562866211,6.72670841217041,2.4394233226776123,-7.428346633911133,0.13333333333333333,-1.3532627065595448,-5.432075547672776,-5.445596312901876,-0.26312570227606924,-0.8614807295732273,-0.8408245863554308,-0.02070813615207079,-0.06363831935379899,-0.06204880753848437,0.2629906314819233,0.16781903131836146,20.431695106446814,16.419754028320312,-0.01430511474609375,1.8856573104858398,-0.23950109951091486,-0.7673289718091232,-0.7480413584677656,0.10473710975363096,0.09464940176797301,0.02367917540921012,0.019207969926976952,0.07572919207181804,0.0741922469516237,-10.349024653434753,-37.79826545715332,-36.93864870071411,-1.1975054975545742,-3.8366448590456157,-3.7402067923388285,-1.9707051515579224,-7.4049248695373535,-7.36202335357666,-0.21437520806252694,-0.6702430883037331,-0.6531272968862378,-0.26312570227606924,-0.8614807295732273,-0.8408245863554308,-0.01651412078973539,-0.0500513852758675,-0.04879946829923532,0.0032403998474965653,0.010439254797054792,0.010176788779166205,-0.08257060394867693,-0.2502569263793375,-0.2439973414961766,-0.012515383739637063,-0.03725163793094996,-0.03632314507637944,-0.02070813615207079,-0.06363831935379899,-0.06204880753848437
-135.12176513671875,12.278252601623535,21.028589248657227,-1.9212974309921265,-7.317243576049805,-7.294559478759766,7.701638698577881,2.3466997146606445,-7.081735134124756,0.14166666666666666,-1.2763900518220186,-5.237319004399034,-5.271000064359106,-0.27376228604125274,-0.9051250546098859,-0.8847495868917566,-0.022989488535747893,-0.0711810281422147,-0.06942172076258235,0.2849209456204542,0.1502430536761707,20.314298283955566,10.52175521850586,8.109970092773438,5.928926467895508,-0.25137851510666,-0.8143053650703538,-0.7943658164688695,0.08997656829424894,0.13277696229341274,0.045160716346169985,0.01811724254738278,0.07325951502611244,0.07240276517227569,-10.067484140396118,-37.48715591430664,-36.82785606384277,-1.2568925755333,-4.071526825351769,-3.9718290823443474,-1.9212974309921265,-7.317243576049805,-7.294559478759766,-0.22795127918973154,-0.7198179872139512,-0.7016492371478626,-0.27376228604125274,-0.9051250546098859,-0.8847495868917566,-0.018608941748957553,-0.05683726331812046,-0.05541918343647591,0.003391160563911368,0.011048752581347434,0.010779420583139453,-0.09304470874478776,-0.2841863165906023,-0.2770959171823795,-0.014414977732884826,-0.043250121157732885,-0.04217022205261163,-0.022989488535747893,-0.0711810281422147,-0.06942172076258235
-135.06948852539062,12.22242259979248,21.047771453857425,-1.931570053100586,-7.164764404296875,-7.242808818817139,7.585464954376221,2.1624436378479004,-7.0175323486328125,0.15,-1.2597771901645254,-4.980750699825511,-5.1142009730831814,-0.2842604292926238,-0.9466313104417652,-0.9273679283341165,-0.02535832544651976,-0.07906962239589609,-0.07714978683203332,0.26646666504209265,0.05665008694516601,20.17575504770976,18.297500610351562,6.210079193115234,-1.2327146530151367,-0.26264034512723844,-0.8596680297159164,-0.8395095547061203,0.04406932810753125,0.18595299962661055,0.06271473444666126,0.01740099660110336,0.07028737563207024,0.07048413613684092,-9.840550661087036,-37.06725835800171,-36.66110610961914,-1.3132017256361923,-4.298340148579582,-4.1975477735306015,-1.9212974309921265,-7.164764404296875,-7.242808818817139,-0.24020479497150674,-0.7688896206120833,-0.749161054868049,-0.2842604292926238,-0.9466313104417652,-0.9273679283341165,-0.02079761129168454,-0.0640011635657531,-0.06241509639236024,0.0035360060157405135,0.011633569515648918,0.011366109582715354,-0.10398805645842271,-0.32000581782876547,-0.3120754819618012,-0.01641668435764738,-0.04965753466283358,-0.04841323084317871,-0.02535832544651976,-0.07906962239589609,-0.07714978683203332
-135.00860595703125,12.16840934753418,21.06940269470215,-1.91183340549469,-7.039539813995361,-7.26713752746582,8.404250144958496,1.7559200525283811,-6.978445529937744,0.15833333333333333,-1.2134800412366487,-4.754717463097416,-5.034656882760698,-0.29437276296959586,-0.9862539559675769,-0.9693234023571223,-0.027811431804599725,-0.08728840536229256,-0.085227481851676,0.30320263018165206,-0.05402745439840376,20.102068052899547,15.02695083618164,-2.919445037841797,2.3683977127075195,-0.27347393872685627,-0.9031408967870153,-0.8835420242039349,0.032467165688579526,0.19728082772540959,0.05459980158853453,0.016792389725480205,0.06725899010845265,0.06867777216176767,-9.721825003623962,-36.468228816986084,-36.528671741485596,-1.3673696936342814,-4.515704483935076,-4.417710121019675,-1.91183340549469,-7.039539813995361,-7.242808818817139,-0.2518485130547397,-0.8162134333426209,-0.7954446170812485,-0.29437276296959586,-0.9862539559675769,-0.9693234023571223,-0.02307656078107501,-0.07152733770564489,-0.0697779465940597,0.003675814796866965,0.012193227763472744,0.01193784595528954,-0.11538280390537504,-0.35763668852822444,-0.34888973297029846,-0.01851542196643688,-0.056459313274022094,-0.05504193598552245,-0.027811431804599725,-0.08728840536229256,-0.085227481851676
-134.95274353027344,12.115917205810549,21.084548950195312,-1.941699862480164,-6.901947975158691,-7.230649948120117,8.124284744262695,2.1993279457092285,-6.404097080230713,0.16666666666666666,-1.2169436630212376,-4.519446943286063,-4.895336286810965,-0.3045139601614395,-1.0239160138282941,-1.0101178714138803,-0.030349048139278387,-0.09582103881086168,-0.093645130780125,0.2722539763711173,-0.1529686622051406,19.988008707047538,16.51102066040039,4.378509521484375,-3.5839748382568892,-0.28400702814819623,-0.9446814128841499,-0.9264766750704613,0.022666467926946147,0.20351682416168326,0.052301945557406145,0.016348023138433903,0.06422082919312908,0.06691396768694342,-9.677105903625488,-35.828420639038086,-36.39729833602905,-1.4200351407409812,-4.7234070644207495,-4.6323833753523065,-1.91183340549469,-6.901947975158691,-7.230649948120117,-0.26312570227606924,-0.8614807295732273,-0.8408245863554308,-0.3045139601614395,-1.0239160138282941,-1.0101178714138803,-0.025443286015643312,-0.07939968281301281,-0.07749858555298021,0.003811974589782242,0.012727614454777282,0.012494997067381896,-0.12721643007821656,-0.39699841406506403,-0.3874929277649011,-0.02070813615207079,-0.06363831935379899,-0.06204880753848437,-0.030349048139278387,-0.09582103881086168,-0.093645130780125
-134.90066528320312,12.06162166595459,21.09894371032715,-1.9136285781860352,-6.709731578826904,-7.168168067932129,7.531367778778076,2.367050170898437,-6.4099626541137695,0.175,-1.1626969114353738,-4.2332232457315895,-4.731787556677659,-0.3142031010900676,-1.0591928742093908,-1.0495494343861942,-0.03296740731502895,-0.10464764609593993,-0.10239137606667661,0.2898999410043463,-0.2538353083604527,19.80583069613098,23.065967559814453,7.497825622558594,3.3685541152954634,-0.2942225079109959,-0.9842238418113827,-0.9682216446766141,0.012584583378600366,0.23434709460343242,0.0473447777835057,0.015992375989444856,0.060970817308618294,0.0652060726345428,-9.620029330253601,-35.13322734832764,-36.20332384109497,-1.4711125395549796,-4.921119209056913,-4.8411082233830705,-1.91183340549469,-6.709731578826904,-7.168168067932129,-0.27376228604125274,-0.9051250546098859,-0.8847495868917566,-0.3142031010900676,-1.0591928742093908,-1.0495494343861942,-0.02789514024823494,-0.08760154816144099,-0.08556709925861865,0.003945168320254922,0.013234942148642763,0.013037931379505013,-0.1394757012411747,-0.43800774080720495,-0.42783549629309325,-0.022989488535747893,-0.0711810281422147,-0.06942172076258235,-0.03296740731502895,-0.10464764609593993,-0.10239137606667661
-134.86166381835938,12.00924301147461,21.11039352416992,-1.8349976539611816,-6.610254287719727,-7.145174503326416,6.1938300132751465,2.4861178398132324,-6.0929484367370605,0.18333333333333332,-1.0590319913418702,-4.043060077625448,-4.60936732349869,-0.3230283676845832,-1.092885041522936,-1.0879608287486833,-0.035659310379067145,-0.1137550214419644,-0.11145771630624898,0.3581028415264834,-0.29237384595621146,19.704568040618923,11.937274932861328,2.759227752685547,9.435710906982422,-0.304075724239662,-1.0217758391939926,-1.0088638930479994,0.04200917414995002,0.22838663993416933,0.05176072019740169,0.015400908068926383,0.057813575183542035,0.06347884222653362,-9.533729553222656,-34.42623805999756,-36.05393886566162,-1.52037862119831,-5.108879195969963,-5.0443194652399965,-1.8349976539611816,-6.610254287719727,-7.145174503326416,-0.2842604292926238,-0.9466313104417652,-0.9273679283341165,-0.3230283676845832,-1.092885041522936,-1.0879608287486833,-0.030429104616898794,-0.09611634682139093,-0.09397429836735198,0.00407337250593909,0.013716016919531488,0.013566470051970664,-0.15214552308449397,-0.48058173410695465,-0.4698714918367599,-0.02535832544651976,-0.07906962239589609,-0.07714978683203332,-0.035659310379067145,-0.1137550214419644,-0.11145771630624898
-134.83978271484375,11.957480430603027,21.11938095092773,-1.827707409858704,-6.564553737640381,-7.074531078338623,4.046370029449463,2.594734668731689,-5.749550342559815,0.19166666666666665,-1.0276649606662582,-3.908733481831206,-4.44099513484277,-0.331592242356802,-1.1254578205381962,-1.1249691215390396,-0.03842257906537383,-0.12313383661311603,-0.12083245898574098,0.33544347216453146,-0.2859155269492273,19.622675482111458,5.484066009521484,8.477210998535156,0.87482929229731,-0.3135420868524977,-1.0575411412132787,-1.0483841316889841,0.05131383750168656,0.20081470576335772,0.07515608515392934,0.014707180450841009,0.05494794539703882,0.06153827903994603,-9.429866909980774,-33.826027393341064,-35.885661125183105,-1.5677104342624884,-5.287705706066394,-5.24192065844492,-1.827707409858704,-6.564553737640381,-7.074531078338623,-0.29437276296959586,-0.9862539559675769,-0.9693234023571223,-0.331592242356802,-1.1254578205381962,-1.1249691215390396,-0.03304195534066961,-0.10492918966483493,-0.10271083279809352,0.004195752081828925,0.014173385504515966,0.014078866012462759,-0.16520977670334805,-0.5246459483241747,-0.5135541639904676,-0.027811431804599725,-0.08728840536229256,-0.085227481851676,-0.03842257906537383,-0.12313383661311603,-0.12083245898574098
-134.83837890625,11.912571907043455,21.12354850769043,-1.8223528861999512,-6.616103172302246,-6.991482257843018,1.8724133968353271,2.452114582061768,-4.854076862335205,0.2,-0.9985652627461163,-3.872427640562412,-4.262410432580812,-0.33991361954635296,-1.1577280508762162,-1.160489208477213,-0.041255192561593435,-0.13278157037041782,-0.13050320238971774,0.29470147900930344,-0.19979448927481666,19.600191448099878,-6.185932159423828,9.965858459472656,0.6425428390503463,-0.32265025816784904,-1.0918359601950067,-1.0866172929130022,0.05547502519142463,0.1345535548786144,0.09187156641489942,0.013949959338658802,0.05280148638066662,0.059489317070574,-9.340386390686035,-33.40259075164795,-35.6100058555603,-1.6132512908392451,-5.459179800975034,-5.433086464565011,-1.8223528861999512,-6.564553737640381,-6.991482257843018,-0.3045139601614395,-1.0239160138282941,-1.0101178714138803,-0.33991361954635296,-1.1577280508762162,-1.160489208477213,-0.035730707492068345,-0.11402782266645997,-0.11176597690570186,0.004311881568880859,0.014613107594785332,0.014574189050694944,-0.17865353746034174,-0.5701391133322998,-0.5588298845285093,-0.030349048139278387,-0.09582103881086168,-0.093645130780125,-0.041255192561593435,-0.13278157037041782,-0.13050320238971774
-134.84451293945312,11.87317943572998,21.12588119506836,-1.8169611692428589,-6.747396945953369,-6.937996864318848,0.8477287888526917,2.10093092918396,-4.1490325927734375,0.20833333333333334,-0.9697418155777278,-3.915139631060538,-4.115421390792167,-0.347994801342834,-1.1903542144683874,-1.1947843867338144,-0.04415514923945038,-0.14270118882432106,-0.14045973894583286,0.2565767892073053,-0.07350006185552459,19.653438424567035,-15.755252838134766,6.418247222900391,0.6470060348510742,-0.3313464264041279,-1.1251236003230254,-1.123550595976989,0.03997041726392733,0.07596551582205732,0.09834302408347903,0.01335766929149678,0.05173098742578233,0.057409776392945165,-9.21564769744873,-33.24803972244263,-35.31735277175903,-1.6567321320206396,-5.625618001615127,-5.617752979884944,-1.8169611692428589,-6.564553737640381,-6.937996864318848,-0.3142031010900676,-1.0591928742093908,-1.0495494343861942,-0.347994801342834,-1.1903542144683874,-1.1947843867338144,-0.03849192771210275,-0.12340385266915184,-0.12112889853884343,0.004423137079724793,0.01504407615731602,0.01505218716755693,-0.19245963856051373,-0.6170192633457592,-0.6056444926942172,-0.03296740731502895,-0.10464764609593993,-0.10239137606667661,-0.04415514923945038,-0.14270118882432106,-0.14045973894583286
-134.8548126220703,11.845131874084473,21.12887954711914,-1.871123433113098,-6.781460285186768,-6.861711502075195,0.4957763254642486,1.1227872371673584,-3.3193490505218506,0.21666666666666667,-1.0002816885547536,-3.8600507353655367,-3.947592955571661,-0.35633048208079027,-1.2225213039297669,-1.2276809946969116,-0.04712456992345697,-0.1528888663570691,-0.15069041390164045,0.16818691730929147,-0.022048332925338105,19.635661212920102,-4.0876007080078125,9.154243469238281,-6.499471664428684,-0.3397719026022725,-1.1577892862671004,-1.1591769080391323,0.021463592293522647,0.0946364428415175,0.11140850732532112,0.013125123856628399,0.05125572424421618,0.05523659829992469,-9.173142552375793,-33.31976842880249,-35.0108962059021,-1.6988595130113626,-5.788946431335503,-5.795884540195662,-1.8169611692428589,-6.564553737640381,-6.861711502075195,-0.3230283676845832,-1.092885041522936,-1.0879608287486833,-0.35633048208079027,-1.2225213039297669,-1.2276809946969116,-0.041323360233788346,-0.1330520967213777,-0.1307887061058362,0.004532485571169021,0.015471139182455266,0.015512111277175793,-0.20661680116894174,-0.6652604836068884,-0.653943530529181,-0.035659310379067145,-0.1137550214419644,-0.11145771630624898,-0.04712456992345697,-0.1528888663570691,-0.15069041390164045
-134.86404418945312,11.826563835144045,21.13220596313477,-1.8500006198883057,-6.7143635749816895,-6.832448959350586,0.4578416645526886,0.2567186951637268,-2.459299802780152,0.225,-0.9554807853594771,-3.7049122436399813,-3.828529515813151,-0.36429282195878593,-1.2533955726267667,-1.2595854073286878,-0.05016034343978019,-0.16333382946229216,-0.16118695896271285,0.18049340311308185,-0.04412422248499634,19.56464066366269,8.051605224609375,3.511505126953125,2.534737586975071,-0.348024793457113,-1.1898913924878667,-1.1935018237551334,0.02254933956984466,0.09126062691174108,0.09804169064824081,0.012936904500754302,0.05070471368084469,0.05320588490128084,-9.188145518302917,-33.42387771606445,-34.69817066192627,-1.740123967285565,-5.949456962439333,-5.967509118775666,-1.8169611692428589,-6.564553737640381,-6.832448959350586,-0.331592242356802,-1.1254578205381962,-1.1249691215390396,-0.36429282195878593,-1.2533955726267667,-1.2595854073286878,-0.04422356684593096,-0.14296785832544323,-0.14073455463712897,0.004640272655568245,0.015893545646905975,0.015955167502910393,-0.2211178342296548,-0.7148392916272162,-0.7036727731856449,-0.03842257906537383,-0.12313383661311603,-0.12083245898574098,-0.05016034343978019,-0.16333382946229216,-0.16118695896271285
-134.88063049316406,11.818742752075195,21.133087158203125,-1.8284813165664675,-6.847960948944092,-6.768070220947266,-0.2080260217189788,-0.4150658845901489,-1.423165202140808,0.23333333333333334,-0.9108672734102141,-3.7507316229094023,-3.6759793537524628,-0.3718833825705377,-1.284651669484345,-1.2902185686099583,-0.053259371627868,-0.17403926004132836,-0.17193878036779583,0.15687629183141563,0.09969684092107736,19.60847630848494,-16.03168487548828,7.7254486083984375,2.582316398620579,-0.35608302149986015,-1.2217301622770964,-1.2265517131693169,0.022466714683322116,0.08577043884994574,0.08789486714024865,0.012688403515817718,0.05010778520256053,0.05128202965790787,-9.188919425010681,-33.707284927368164,-34.39170980453491,-1.7804151074993009,-6.108650811385482,-6.132758565846585,-1.8169611692428589,-6.616103172302246,-6.768070220947266,-0.33991361954635296,-1.1577280508762162,-1.160489208477213,-0.3718833825705377,-1.284651669484345,-1.2902185686099583,-0.047190925358429794,-0.1531489430110857,-0.15095581891353996,0.0047459653230576895,0.01631096512583529,0.016382220204202734,-0.23595462679214896,-0.7657447150554285,-0.7547790945676998,-0.041255192561593435,-0.13278157037041782,-0.13050320238971774,-0.053259371627868,-0.17403926004132836,-0.17193878036779583
-134.88670349121094,11.821474075317385,21.136199951171875,-1.931269884109497,-6.863988399505615,-6.683156967163086,0.8401084542274475,-1.5287600755691528,-0.6290087699890137,0.24166666666666667,-0.9900958699391238,-3.6785437713036675,-3.504982282059026,-0.3801341814866971,-1.3153062009118757,-1.3194267542937834,-0.05642715647359048,-0.1850001450489273,-0.18293400332024404,0.0280453508243493,0.12762337056339504,19.58198305847588,-1.9232940673828125,10.189590454101562,-12.334628105163548,-0.364127133887929,-1.2532457922842284,-1.258339222332631,0.04513298930103663,0.06410386980710706,0.09641782601763228,0.012623909376058916,0.04933860207965613,0.04931702623581546,-9.297836422920227,-33.95517015457153,-34.08338451385498,-1.820635669439645,-6.266228961421142,-6.291696111663155,-1.8169611692428589,-6.7143635749816895,-6.683156967163086,-0.347994801342834,-1.1903542144683874,-1.1947843867338144,-0.3801341814866971,-1.3153062009118757,-1.3194267542937834,-0.0502253181408292,-0.1635926579467876,-0.16144197909964522,0.00485113623233001,0.01672201862833421,0.016792896811682823,-0.251126590704146,-0.817963289733938,-0.8072098954982261,-0.04415514923945038,-0.14270118882432106,-0.14045973894583286,-0.05642715647359048,-0.1850001450489273,-0.18293400332024404
-134.8925018310547,11.83627986907959,21.13797378540039,-1.9606616497039795,-6.781991481781006,-6.647850513458252,1.0634645223617554,-2.4067904949188232,0.4289743900299072,0.25,-0.9950369734894651,-3.5097191335324167,-3.3854190831264575,-0.388426156265776,-1.3445538603579792,-1.3476385799865038,-0.05966404110913861,-0.19620476055191047,-0.19416432482013157,-0.0008172789651865566,0.08227608684515346,19.50673909056265,9.839630126953125,4.236774444580078,-3.5270118713378906,-0.3722134048725174,-1.2840857214621466,-1.288910060983169,0.05572874229375387,0.059948812803299716,0.09237481308604598,0.012656063712035311,0.048382582603138845,0.047410319492152915,-9.441536903381348,-33.98976469039917,-33.793238162994385,-1.861067024362587,-6.4204286073107335,-6.444550304915845,-1.8284813165664675,-6.7143635749816895,-6.647850513458252,-0.35633048208079027,-1.2225213039297669,-1.2276809946969116,-0.388426156265776,-1.3445538603579792,-1.3476385799865038,-0.053327096514766845,-0.1742933722923055,-0.17218289627450495,0.004956598792382457,0.01712507623877667,0.01718768841426985,-0.26663548257383424,-0.8714668614615274,-0.8609144813725247,-0.04712456992345697,-0.1528888663570691,-0.15069041390164045,-0.05966404110913861,-0.19620476055191047,-0.19416432482013157
-134.8917236328125,11.85839557647705,21.137287139892575,-1.9406174421310425,-6.8347487449646,-6.708370208740234,1.7547545433044434,-2.853208065032959,1.3338613510131836,0.2583333333333333,-0.9506958364193665,-3.4767170499697864,-3.362269074575442,-0.3963486215692707,-1.3735265024410608,-1.3756574889412991,-0.06296694628888252,-0.2076508147389193,-0.20562813722797574,0.03840233100818826,0.09125326691781462,19.580988456817554,-6.33087158203125,-7.262363433837891,2.4053049087524414,-0.38021703277021346,-1.3142867611644056,-1.3185053598320464,0.05894476628218475,0.06101113103740037,0.07303316383813256,0.01275396943798052,0.04746698589000571,0.045792091857340275,-9.511030912399292,-34.043053150177,-33.639896869659424,-1.9010851638510673,-6.571433805822028,-6.5925267991602325,-1.8284813165664675,-6.7143635749816895,-6.647850513458252,-0.36429282195878593,-1.2533955726267667,-1.2595854073286878,-0.3963486215692707,-1.3735265024410608,-1.3756574889412991,-0.05649557178785196,-0.18524576196867554,-0.183170440939772,0.00506287161908739,0.017520451184743737,0.017569100625357454,-0.2824778589392598,-0.9262288098433776,-0.91585220469886,-0.05016034343978019,-0.16333382946229216,-0.16118695896271285,-0.06296694628888252,-0.2076508147389193,-0.20562813722797574
-134.8903350830078,11.88849925994873,21.135744094848636,-1.9772849082946775,-6.711129188537598,-6.674079418182373,2.009219169616699,-3.428106546401977,2.0048646926879883,0.26666666666666666,-0.963158088543622,-3.2687509737092366,-3.2448843723912093,-0.4043749389738009,-1.4007660938886377,-1.4026981920445591,-0.06633673744699753,-0.21932386552132463,-0.21731728882834705,0.011030351046770751,0.01292949587775801,19.479123943435045,14.834346771240234,4.114894866943359,-4.400095939636204,-0.3882334561732165,-1.3437608654167796,-1.3471279167752208,0.05824319311666043,0.06226448474232672,0.045580973879207676,0.012839038778207182,0.0459341458977716,0.04446425831447223,-9.638315200805664,-34.03981876373291,-33.48152732849121,-1.9411672808660823,-6.718804327083898,-6.735639583876104,-1.8284813165664675,-6.711129188537598,-6.647850513458252,-0.3718833825705377,-1.284651669484345,-1.2902185686099583,-0.4043749389738009,-1.4007660938886377,-1.4026981920445591,-0.05973085058929543,-0.196443769180482,-0.19439650691289884,0.005169839330642417,0.017903019067118116,0.01793951045778955,-0.29865425294647713,-0.98221884590241,-0.9719825345644941,-0.053259371627868,-0.17403926004132836,-0.17193878036779583,-0.06633673744699753,-0.21932386552132463,-0.21731728882834705
-134.8914031982422,11.924368858337402,21.13161849975586,-2.0222010612487797,-6.761710643768311,-6.691505432128906,1.6184483766555786,-3.732967376708984,2.788609027862549,0.275,-0.98341260512835,-3.236407461792613,-3.1801532127903993,-0.41257004401653713,-1.4277361560702428,-1.4291994688178125,-0.06977482114713533,-0.23122166682190998,-0.22922728440182882,-0.023520478340072832,0.02480040050623953,19.535487372754616,-6.0697746276856535,-2.0911216735839844,-5.389938354492267,-0.39637078846241636,-1.3723777627339593,-1.3749240968167915,0.035930604704422886,0.060330787328735425,0.02242168352322469,0.012779156702533236,0.04444969452559766,0.04342294523461136,-9.832034945487976,-33.95356845855713,-33.40496253967285,-1.9818539423120818,-6.861888813669796,-6.874620484083958,-1.931269884109497,-6.711129188537598,-6.647850513458252,-0.3801341814866971,-1.3153062009118757,-1.3194267542937834,-0.41257004401653713,-1.4277361560702428,-1.4291994688178125,-0.0630339404931489,-0.20788025053659834,-0.20585420771970547,0.005276320803185038,0.018273252121732603,0.018301251199561535,-0.3151697024657445,-1.0394012526829917,-1.0292710385985273,-0.05642715647359048,-0.1850001450489273,-0.18293400332024404,-0.06977482114713533,-0.23122166682190998,-0.22922728440182882
-134.88966369628906,11.967988967895508,21.12737274169922,-2.0044620037078857,-6.726751327514648,-6.66567325592041,2.114468097686768,-4.349451065063477,3.377633810043335,0.2833333333333333,-0.9410189942372413,-3.1191870296881348,-3.073023568488469,-0.4204118689685141,-1.453729381317644,-1.4548079985552165,-0.07327825338853962,-0.24333607833289034,-0.24135068438978896,-0.006341520352830849,0.024299860221501917,19.489753127179135,4.19511795043956,3.0998611450195312,2.12868690490728,-0.40442632595877975,-1.400062398815113,-1.402000345669078,0.03281076093862247,0.04877092895467296,0.023344089909549757,0.012679857137914747,0.043104027295368975,0.04236176094568005,-9.905227065086365,-33.81633138656616,-33.387478828430176,-2.0221316297938987,-7.000311994075565,-7.01000172834539,-1.9406174421310425,-6.711129188537598,-6.647850513458252,-0.388426156265776,-1.3445538603579792,-1.3476385799865038,-0.4204118689685141,-1.453729381317644,-1.4548079985552165,-0.06640415987613872,-0.21954743719339093,-0.2175375439336144,0.005381976937953839,0.018632278762867306,0.018654125165216945,-0.3320207993806936,-1.0977371859669547,-1.087687719668072,-0.05966404110913861,-0.19620476055191047,-0.19416432482013157,-0.07327825338853962,-0.24333607833289034,-0.24135068438978896
-134.8899383544922,12.015400886535645,21.1201171875,-2.0268921852111816,-6.642755031585693,-6.646866798400879,1.7936497926712036,-4.448860168457031,4.029951572418213,0.2916666666666667,-0.9389920109125067,-2.9547254284440303,-2.974079965645278,-0.428236802392785,-1.4783520932213443,-1.4795919982689272,-0.0768468934084795,-0.25565567910973486,-0.2536806177086967,-0.016922187058179147,-0.02900464925678346,19.42323030753543,10.07955551147461,2.25677490234375,-2.691621780395508,-0.41238845518418155,-1.426822045387786,-1.428391029325563,0.03576071895445932,0.07037290546839046,0.023658430067652652,0.012620132298743153,0.04153165558168199,0.0411126416915805,-9.971457600593567,-33.67709493637085,-33.3864951133728,-2.0619422759209076,-7.13411022693893,-7.141955146627815,-1.9406174421310425,-6.642755031585693,-6.646866798400879,-0.3963486215692707,-1.3735265024410608,-1.3756574889412991,-0.428236802392785,-1.4783520932213443,-1.4795919982689272,-0.0698407303360069,-0.23143762090495584,-0.22944080251132742,0.0054871236328490666,0.018978207802736995,0.018996592648834357,-0.34920365168003453,-1.1571881045247792,-1.1472040125566372,-0.06296694628888252,-0.2076508147389193,-0.20562813722797574,-0.0768468934084795,-0.25565567910973486,-0.2536806177086967
-134.89369201660156,12.06723403930664,21.11396789550781,-2.0159285068511963,-6.788173198699951,-6.606092929840088,1.4995341300964355,-4.887132167816162,4.233443737030029,0.3,-0.9037103951208858,-3.019939425356524,-2.8544477093189897,-0.4357677223521257,-1.5035182550993154,-1.5033790625132522,-0.08047829109474722,-0.26818499790222916,-0.2662087765629738,-0.03193066616683927,0.10684788328709245,19.493557759437493,-17.450180053710938,4.892864227294922,1.3156414031982422,-0.4202722753407526,-1.4528203959194368,-1.4539353440399534,0.019800361952106053,0.055434946231142423,0.032602323346826875,0.012405762033843675,0.04050258076875338,0.03981462041826235,-10.04676866531372,-33.6305193901062,-33.284217834472656,-2.101361376703763,-7.264101979597184,-7.269676720199767,-1.9772849082946775,-6.642755031585693,-6.606092929840088,-0.4043749389738009,-1.4007660938886377,-1.4026981920445591,-0.4357677223521257,-1.5035182550993154,-1.5033790625132522,-0.07334299929717984,-0.24354445753761783,-0.24155693037832707,0.005590470808350965,0.019315599835138312,0.019328219295767828,-0.3667149964858992,-1.217722287688089,-1.2077846518916353,-0.06633673744699753,-0.21932386552132463,-0.21731728882834705,-0.08047829109474722,-0.26818499790222916,-0.2662087765629738
-134.8898162841797,12.12032413482666,21.112422943115234,-2.0289831161499023,-6.786123275756836,-6.553717136383057,2.1500589847564697,-5.406435012817383,4.038186550140381,0.30833333333333335,-0.892664873035995,-2.937255118455642,-2.7247668326611514,-0.4432065962940923,-1.5279953810864457,-1.5260854527854284,-0.08417167939719798,-0.2809182927446162,-0.2789261553361857,-0.05560119078261173,0.13524683506119398,19.45873394307774,0.24599075317382812,6.28509521484375,-1.5665531158447266,-0.4280386068048109,-1.4782662533589985,-1.4786127961881275,0.009881542807510031,0.06030215006623185,0.05406527599781115,0.012117033243951612,0.039579053571590986,0.0383285964423399,-10.098466873168945,-33.70551347732544,-33.16385555267334,-2.1401930340240543,-7.391331266794992,-7.393063980940637,-2.0044620037078857,-6.642755031585693,-6.553717136383057,-0.41257004401653713,-1.4277361560702428,-1.4291994688178125,-0.4432065962940923,-1.5279953810864457,-1.5260854527854284,-0.07690998768721993,-0.2558633429822761,-0.2538787036798948,0.005691419685761695,0.019645364436883445,0.019647445823723263,-0.38454993843609964,-1.2793167149113804,-1.269393518399474,-0.06977482114713533,-0.23122166682190998,-0.22922728440182882,-0.08417167939719798,-0.2809182927446162,-0.2789261553361857
-134.8880615234375,12.175179481506348,21.11488914489746,-2.0450263023376465,-6.993168830871582,-6.5513410568237305,1.9471943378448489,-5.858193397521973,3.7785611152648926,0.31666666666666665,-0.8845967127636256,-3.062721985908647,-2.646304030720146,-0.4505782355671225,-1.5535180643023512,-1.5481379863747629,-0.087926498026924,-0.2938642766138025,-0.29182730522264205,-0.0862275483456892,0.2815480893629348,19.60387094056448,-24.84546661376953,0.2851295471191406,-1.9251823425292969,-0.4356402451149279,-1.50342263500542,-1.5024004996995175,0.015180991080652986,0.12936717881722504,0.052307119420234464,0.011907181483866939,0.03940600384786696,0.03687521585669709,-10.121292114257812,-33.93697166442871,-33.023691177368164,-2.1782012255746395,-7.5171131750271005,-7.512002498497587,-2.0044620037078857,-6.642755031585693,-6.5513410568237305,-0.4204118689685141,-1.453729381317644,-1.4548079985552165,-0.4505782355671225,-1.5535180643023512,-1.5481379863747629,-0.08054032306317767,-0.2683918649406546,-0.26639870784405745,0.0057906229362288154,0.019973737857492506,0.019954572626709622,-0.40270161531588833,-1.341959324703273,-1.3319935392202873,-0.07327825338853962,-0.24333607833289034,-0.24135068438978896,-0.087926498026924,-0.2938642766138025,-0.29182730522264205
-134.86849975585938,12.230605125427246,21.12276268005371,-2.006187438964844,-7.107207298278809,-6.560001850128174,3.791073083877564,-6.385705947875977,3.4591639041900635,0.325,-0.8220738203757512,-3.0932682882425366,-2.5795733240935084,-0.4574288507369204,-1.5792953000377057,-1.5696344307422088,-0.09173840511639833,-0.3070250707807834,-0.3049075921454938,-0.050424854049154866,0.3715436968270653,19.68067477481125,-13.684616088867188,-1.0392951965332031,4.660663604736275,-0.4430436414686092,-1.5285358187494325,-1.5253657861369159,0.014628027747445737,0.18479507394378764,0.04183036344773195,0.011574890826747859,0.03982842705045476,0.03555790907251291,-10.12301754951477,-34.31742763519287,-32.91801977157593,-2.215218207343046,-7.642679093747162,-7.62682893068458,-2.006187438964844,-6.642755031585693,-6.5513410568237305,-0.428236802392785,-1.4783520932213443,-1.4795919982689272,-0.4574288507369204,-1.5792953000377057,-1.5696344307422088,-0.0842323534087494,-0.28112966343023327,-0.27911008939519844,0.005887045126941236,0.020305636010389483,0.02025076826530856,-0.421161767043747,-1.4056483171511662,-1.395550446975992,-0.0768468934084795,-0.25565567910973486,-0.2536806177086967,-0.09173840511639833,-0.3070250707807834,-0.3049075921454938
-134.83811950683594,12.286696434020996,21.133447647094727,-1.996571063995361,-6.94447135925293,-6.553084850311279,5.1683759689331055,-6.642897605895996,3.207990884780884,0.3333333333333333,-0.7894142395071295,-2.848264671453844,-2.497994528909431,-0.46400730273281315,-1.6030308389664878,-1.590451051816454,-0.09560513263917178,-0.32038366110550415,-0.3181613509106309,-0.01510184974054898,0.26195893797997594,19.561207565086175,19.52831268310547,0.8300399780273438,1.1539649963379706,-0.4501977415366148,-1.5534715678984612,-1.5475375968464211,0.019056643812978648,0.13804626247741783,0.023288058820840944,0.011183014596613321,0.039583324160554684,0.034425157198399996,-10.09269642829895,-34.61914396286011,-32.82423782348633,-2.250988707683074,-7.7673578394923055,-7.737687984232106,-1.996571063995361,-6.786123275756836,-6.5513410568237305,-0.4357677223521257,-1.5035182550993154,-1.5033790625132522,-0.46400730273281315,-1.6030308389664878,-1.590451051816454,-0.08798400125488785,-0.2940752598293871,-0.29200623603558523,0.0059801751961739095,0.020635440029388514,0.020537553811135978,-0.4399200062744393,-1.4703762991469356,-1.4600311801779262,-0.08047829109474722,-0.26818499790222916,-0.2662087765629738,-0.09560513263917178,-0.32038366110550415,-0.3181613509106309
-134.8032684326172,12.340396881103516,21.1456298828125,-1.9750354290008545,-6.96809196472168,-6.584743976593018,5.517101764678955,-6.592451095581055,2.962440252304077,0.3416666666666667,-0.7453254644031464,-2.7915967679123295,-2.4555234072440237,-0.47021834826950604,-1.6262941453657571,-1.6109137468768209,-0.099523618874751,-0.33393611231688547,-0.3315856321346044,0.024998645627308844,0.26502406268017914,19.59483832905903,-2.83447265625,-3.7990951538085938,2.5842761993407937,-0.45708786672009094,-1.5780267459517494,-1.569044533719135,0.02740412062381308,0.1154444867918629,0.013900235916912747,0.010670864268427074,0.03892418492924992,0.03351933905421556,-10.051803350448608,-34.799062728881836,-32.80288887023926,-2.2854393336004546,-7.890133729758747,-7.845222668595675,-1.9750354290008545,-6.786123275756836,-6.5513410568237305,-0.4432065962940923,-1.5279953810864457,-1.5260854527854284,-0.47021834826950604,-1.6262941453657571,-1.6109137468768209,-0.09179306681088861,-0.3072254827123183,-0.3050816071499114,0.006069023176401548,0.02095963757943695,0.020816805095982476,-0.45896533405444306,-1.5361274135615917,-1.525408035749557,-0.08417167939719798,-0.2809182927446162,-0.2789261553361857,-0.099523618874751,-0.33393611231688547,-0.3315856321346044
-134.76499938964844,12.388970375061035,21.155845642089844,-1.9996756315231323,-6.933411121368408,-6.519867897033691,6.119023323059082,-5.965299606323242,2.613612651824951,0.35,-0.7476100710654987,-2.6775117556113566,-2.3175351017609547,-0.47644843219505184,-1.648606743329185,-1.6302265393914954,-0.10349402247637643,-0.34767450184462867,-0.3451708532962002,-0.009293030829141274,0.2681158693598335,19.531501803948224,4.161701202392578,7.785129547119141,-2.95682430267334,-0.4637362339002828,-1.6021490184002976,-1.5898727510403483,0.02549280354106586,0.06982128780038763,0.023205267562655084,0.010205479814761997,0.03751448756390525,0.03249179266388435,-10.022495865821838,-34.94635057449341,-32.76903963088989,-2.318681169501414,-8.010745092001487,-7.949363755201742,-1.9750354290008545,-6.933411121368408,-6.519867897033691,-0.4505782355671225,-1.5535180643023512,-1.5481379863747629,-0.47644843219505184,-1.648606743329185,-1.6302265393914954,-0.09565753542672431,-0.32057672453232083,-0.3183305467419143,0.006154031163088385,0.0212720605721079,0.02108746957941727,-0.4782876771336215,-1.6028836226616041,-1.5916527337095714,-0.087926498026924,-0.2938642766138025,-0.29182730522264205,-0.10349402247637643,-0.34767450184462867,-0.3451708532962002
-134.72116088867188,12.43252944946289,21.16398429870605,-2.01716947555542,-6.88848876953125,-6.549306392669678,6.696854591369629,-5.394075870513916,2.439871072769165,0.35833333333333334,-0.7426155387478945,-2.554642504051966,-2.274891512874591,-0.482636895017951,-1.6698954308629514,-1.6491839686654504,-0.10751599660152603,-0.36159029710181995,-0.35891405303507895,0.0010111364500863652,0.20798624352090622,19.524443120747772,5.390682220458984,-3.5326194763183594,-2.0992612838745117,-0.47014796579044854,-1.6254244917124177,-1.610081947498486,0.015511446849920486,0.08284042711714994,0.02327707111348589,0.009939288384873254,0.03586507885219643,0.031451701897964944,-9.994639039039612,-34.841670513153076,-32.76700496673584,-2.3507398289522428,-8.127122458562088,-8.05040973749243,-1.9750354290008545,-6.88848876953125,-6.519867897033691,-0.4574288507369204,-1.5792953000377057,-1.5696344307422088,-0.482636895017951,-1.6698954308629514,-1.6491839686654504,-0.09957543514164471,-0.3341219286299243,-0.33174789630440166,0.0062368435426374625,0.02157080048827036,0.02134946321725659,-0.4978771757082236,-1.6706096431496216,-1.6587394815220082,-0.09173840511639833,-0.3070250707807834,-0.3049075921454938,-0.10751599660152603,-0.36159029710181995,-0.35891405303507895
-134.67733764648438,12.471602439880373,21.17607307434082,-1.9375511407852173,-6.7852091789245605,-6.539529323577881,6.735275745391846,-5.314441204071045,1.659764051437378,0.36666666666666664,-0.6412573233373715,-2.3754418086434566,-2.193590926935424,-0.48798070604576244,-1.6896907792683136,-1.6674638930565788,-0.11158250248524071,-0.37567105359572256,-0.3728095854772171,0.08983718270116157,0.16419909885886882,19.428917804794537,12.393550872802734,1.173248291015625,9.554200172424316,-0.47625833685221686,-1.647503587558539,-1.6296478399613599,0.03055578774239271,0.07239226633259907,0.02362369150748579,0.009548630518257984,0.03431485301236497,0.030411361092742364,-9.926002740859985,-34.51967239379883,-32.74653244018555,-2.3812916842610843,-8.237517937792695,-8.148239199806799,-1.9375511407852173,-6.7852091789245605,-6.519867897033691,-0.46400730273281315,-1.6030308389664878,-1.590451051816454,-0.48798070604576244,-1.6896907792683136,-1.6674638930565788,-0.1035442546154132,-0.34785112519291217,-0.3453282949707463,0.006316364777337754,0.0218565414900222,0.02160279246624105,-0.517721273077066,-1.7392556259645608,-1.7266414748537315,-0.09560513263917178,-0.32038366110550415,-0.3181613509106309,-0.11158250248524071,-0.37567105359572256,-0.3728095854772171
-134.62620544433594,12.503246307373049,21.18980407714844,-1.876821756362915,-6.710701942443848,-6.638054370880127,7.422596454620361,-4.851579666137695,0.9671679139137268,0.375,-0.5601907349092021,-2.227273805477223,-2.2205654112741877,-0.4926489621700058,-1.708251394313957,-1.6859686048171971,-0.1156879105033241,-0.3899064818816722,-0.3868593238506937,0.20062346683111165,0.06682466427905569,19.43159191532452,8.940868377685547,-11.823005676269531,7.2875261306762695,-0.4819866687396554,-1.6685476986280328,-1.6487513505615083,0.05586438759721983,0.10692112427274797,0.046503392360844394,0.008933101495938473,0.03243545187667641,0.029623990703788287,-9.806253433227539,-34.285902976989746,-32.831501960754395,-2.409933343698277,-8.342738493140164,-8.243756752807542,-1.876821756362915,-6.710701942443848,-6.519867897033691,-0.47021834826950604,-1.6262941453657571,-1.6109137468768209,-0.4926489621700058,-1.708251394313957,-1.6859686048171971,-0.10756081018824364,-0.3617556893481458,-0.35906788955875885,0.006390637355220327,0.02212657081831142,0.021849621177521598,-0.5378040509412182,-1.8087784467407289,-1.7953394477937943,-0.099523618874751,-0.33393611231688547,-0.3315856321346044,-0.1156879105033241,-0.3899064818816722,-0.3868593238506937
-134.57095336914062,12.526259422302246,21.19900894165039,-1.7949358224868774,-6.470437049865723,-6.761746406555176,8.176717758178711,-3.7176246643066406,0.5313032865524292,0.3833333333333333,-0.4593781178859355,-1.9167470409505336,-2.271556018056165,-0.4964771131523886,-1.7242242863218782,-1.7048982383009985,-0.119825219779594,-0.4042750176010212,-0.4010668091698687,0.3578109903650758,-0.15730209710148635,19.331386035399724,28.831787109375,-14.84304428100586,9.826312065124512,-0.48723842171623194,-1.688133726819257,-1.667548248846344,0.09146961308469095,0.1826647630035061,0.10030362493601018,0.007949469719774121,0.030019540745080304,0.02942998099494645,-9.626153826713562,-33.78824806213379,-33.00850439071655,-2.4361921085811598,-8.440668634096285,-8.33774124423172,-1.7949358224868774,-6.470437049865723,-6.519867897033691,-0.47644843219505184,-1.648606743329185,-1.6302265393914954,-0.4964771131523886,-1.7242242863218782,-1.7048982383009985,-0.11162113036921224,-0.37582347040497294,-0.3729641249658117,0.006456571880235117,0.022376285629402574,0.022094862328925224,-0.5581056518460612,-1.8791173520248647,-1.8648206248290586,-0.10349402247637643,-0.34767450184462867,-0.3451708532962002,-0.119825219779594,-0.4042750176010212,-0.4010668091698687
-134.5286865234375,12.538784980773926,21.200218200683597,-1.740538239479065,-6.1995625495910645,-6.773977756500244,6.684072494506836,-2.1934492588043213,0.3681149780750274,0.39166666666666666,-0.38739956529350694,-1.5806393811273942,-2.210674734491313,-0.49970544286316787,-1.7373962811646064,-1.7233205277550927,-0.12398943180345373,-0.41875331994405957,-0.4154278135678278,0.4462115987625001,-0.3435056859839216,19.139186613406743,32.504940032958984,-1.4677619934082031,6.5277099609375,-0.49188982384985513,-1.7058916343863413,-1.6861670465190635,0.11023340452154892,0.27673452034020984,0.11215122668156091,0.006774978019706399,0.02689048036564568,0.02936338744766344,-9.367016434669495,-33.054399490356445,-33.262614250183105,-2.4594491192492756,-8.529458171931706,-8.430835232595317,-1.740538239479065,-6.1995625495910645,-6.539529323577881,-0.482636895017951,-1.6698954308629514,-1.6491839686654504,-0.49970544286316787,-1.7373962811646064,-1.7233205277550927,-0.11572021223462772,-0.39003923402485907,-0.38701551702013726,0.006512716766990352,0.02259956032885052,0.02233955332813859,-0.5786010611731386,-1.9501961701242954,-1.9350775851006863,-0.10751599660152603,-0.36159029710181995,-0.35891405303507895,-0.12398943180345373,-0.41875331994405957,-0.4154278135678278
-134.51470947265625,12.54533576965332,21.19855499267578,-1.6749106645584106,-6.316335678100586,-6.750371932983398,3.508342742919922,-1.4236133098602295,0.0248073823750019,0.4,-0.3053886940005215,-1.6341553370948496,-2.1147931496448056,-0.5022503486465055,-1.7510142423070636,-1.7409438040021328,-0.12817485137550794,-0.4333451052966184,-0.42993567860117893,0.4855277347366528,-0.22480058204996614,19.189907829153725,-14.012775421142578,2.8326988220214844,7.875308990478516,-0.4958125145755661,-1.7221153966751637,-1.7045190135863997,0.10477117840246922,0.25027273073082074,0.10142352568133425,0.005665412123487808,0.024065860158269572,0.02914449230230268,-9.024757623672485,-32.48224639892578,-33.463679790496826,-2.4790625728778304,-8.610576983375818,-8.522595067931999,-1.6749106645584106,-6.1995625495910645,-6.539529323577881,-0.48798070604576244,-1.6896907792683136,-1.6674638930565788,-0.5022503486465055,-1.7510142423070636,-1.7409438040021328,-0.1198519831894241,-0.40439019566381884,-0.4012198421333572,0.006559594968608417,0.022799487291220475,0.022582384196713674,-0.5992599159471205,-2.021950978319094,-2.006099210666786,-0.11158250248524071,-0.37567105359572256,-0.3728095854772171,-0.12817485137550794,-0.4333451052966184,-0.42993567860117893
-134.51136779785156,12.546072006225586,21.20533561706543,-1.6809847354888916,-6.48293924331665,-6.64450216293335,1.8692883253097532,-1.6657193899154663,-1.0975699424743652,0.4083333333333333,-0.29575732371579244,-1.735772079023156,-1.9384757038264482,-0.5047149930108038,-1.7654790096322566,-1.7570977682006865,-0.13238080965059798,-0.4480574303768872,-0.44457816000285133,0.4198038801477279,-0.04457056334344446,19.234722705406448,-19.992427825927734,12.70437240600586,-0.7288885116577148,-0.4991593719685744,-1.7372730427479524,-1.7224457886152216,0.08445093529544026,0.1930495907336681,0.0667032476360349,0.004751242035314222,0.022343558596393535,0.0282055087300149,-8.76819121837616,-32.17997646331787,-33.568652629852295,-2.495796859842872,-8.686365213739762,-8.612228943076108,-1.6749106645584106,-6.1995625495910645,-6.638054370880127,-0.4926489621700058,-1.708251394313957,-1.6859686048171971,-0.5047149930108038,-1.7654790096322566,-1.7570977682006865,-0.12401164462249555,-0.4188674710200517,-0.4155735570384841,0.006598984955983997,0.022985578308082,0.02281727246708055,-0.6200582231124777,-2.0943373551002584,-2.0778677851924203,-0.1156879105033241,-0.3899064818816722,-0.3868593238506937,-0.13238080965059798,-0.4480574303768872,-0.44457816000285133
-134.51577758789062,12.54256820678711,21.222028732299805,-1.7323552370071411,-6.670997619628906,-6.558766841888428,0.8225627541542053,-2.1157612800598145,-2.34326720237732,0.4166666666666667,-0.33110791760934166,-1.8565289387709907,-1.7846314033037327,-0.5074742256575483,-1.7809500841220147,-1.771969696561551,-0.13660976153107754,-0.462898681077904,-0.45934457414086427,0.3174012243835879,0.12357061025376066,19.31813720775931,-22.567005157470703,10.288238525390625,-6.164460182189941,-0.5021244246660828,-1.7518127807095638,-1.7396460069640924,0.04907268950470726,0.17924818097077552,0.09330977101176827,0.004274659990609814,0.022390547159490088,0.02657535444294809,-8.623724699020386,-32.14027214050293,-33.489365100860596,-2.510622123330414,-8.759063903547819,-8.698230034820462,-1.6749106645584106,-6.1995625495910645,-6.558766841888428,-0.4964771131523886,-1.7242242863218782,-1.7048982383009985,-0.5074742256575483,-1.7809500841220147,-1.771969696561551,-0.12819601482804624,-0.43346591085929803,-0.43007060709651823,0.006634561772780349,0.02317209301731716,0.02303846859079555,-0.6409800741402312,-2.16732955429649,-2.150353035482591,-0.119825219779594,-0.4042750176010212,-0.4010668091698687,-0.13660976153107754,-0.462898681077904,-0.45934457414086427
-134.50955200195312,12.53890323638916,21.24492073059082,-1.7023402452468872,-6.647120952606201,-6.674670219421387,1.7979786396026611,-2.64151930809021,-2.7971513271331787,0.425,-0.2850660885466074,-1.7646643312734813,-1.8328756673272988,-0.5098497763954367,-1.7956556202159604,-1.7872436604559452,-0.1408585096677062,-0.477862477913037,-0.4742382713113305,0.39347241588829507,0.0455606318906846,19.37433507850656,2.8652000427246094,-13.908405303955078,3.6017990112304688,-0.5047989573146925,-1.7660990474883804,-1.7561150913950816,0.029550539599263806,0.2052255203179473,0.08626842044827551,0.004034667883122925,0.02316208577304784,0.02513450484873638,-8.531129121780396,-32.31695604324341,-33.40228891372681,-2.5239947865734624,-8.830495237441902,-8.780575456975408,-1.6749106645584106,-6.1995625495910645,-6.558766841888428,-0.49970544286316787,-1.7373962811646064,-1.7233205277550927,-0.5098497763954367,-1.7956556202159604,-1.7872436604559452,-0.1324026728056687,-0.4481834029217012,-0.44470489952481057,0.0066681772019253046,0.023365078820321426,0.02324776243896879,-0.6620133640283434,-2.240917014608506,-2.223524497624053,-0.12398943180345373,-0.41875331994405957,-0.4154278135678278,-0.1408585096677062,-0.477862477913037,-0.4742382713113305
-134.5010223388672,12.527543067932127,21.26997756958008,-1.7075347900390625,-6.7294697761535645,-6.763710975646973,2.1564881801605225,-2.1549129486083984,-3.69942569732666,0.43333333333333335,-0.27461690388233095,-1.7792381958856325,-1.853230745098294,-0.5121382505944562,-1.810482605181674,-1.802687249998431,-0.14512632842266,-0.4929498329562176,-0.48926066506131743,0.4140522841454741,0.04603685872993383,19.49378366151772,-9.881858825683594,-10.684890747070312,-0.6233453750610352,-0.5072855188609501,-1.7807163122917937,-1.7719884358437494,0.0229099519152159,0.16845026398893428,0.08356582547001935,0.003940830320829387,0.02357783978995577,0.02429321185368775,-8.498125672340393,-32.84686326980591,-33.392022132873535,-2.5364275943047505,-8.903581561458969,-8.859942179218747,-1.6749106645584106,-6.316335678100586,-6.558766841888428,-0.5022503486465055,-1.7510142423070636,-1.7409438040021328,-0.5121382505944562,-1.810482605181674,-1.802687249998431,-0.1366300521295099,-0.4630227055241328,-0.45947146982350845,0.006700997260582743,0.02356155023789318,0.02345018295320206,-0.6831502606475496,-2.3151135276206642,-2.2973573491175423,-0.12817485137550794,-0.4333451052966184,-0.42993567860117893,-0.14512632842266,-0.4929498329562176,-0.48926066506131743
-134.49368286132812,12.51020622253418,21.291549682617188,-1.5993891954421997,-6.488613605499268,-6.752205848693848,1.9648553133010864,-1.3826051950454712,-3.859194278717041,0.44166666666666665,-0.15186700076701465,-1.4726505578463174,-1.7730987254086923,-0.5134038089341812,-1.8227546931637266,-1.8174630727101702,-0.1494046934971115,-0.5081394553992487,-0.5044061906672355,0.5321273450792574,-0.08145335079354354,19.294863835784167,28.902740478515625,1.380615234375,12.977471351623535,-0.5095162109184852,-1.7950644024631264,-1.7872922895853567,0.050978435580693704,0.11187084255270403,0.08396374816654331,0.0035114517483617247,0.022799847388610323,0.023946681940831636,-8.422604203224182,-33.01914119720459,-33.393856048583984,-2.5475810545924262,-8.975322012315631,-8.936461447926783,-1.5993891954421997,-6.48293924331665,-6.558766841888428,-0.5047149930108038,-1.7654790096322566,-1.7570977682006865,-0.5134038089341812,-1.8227546931637266,-1.8174630727101702,-0.14087602055383064,-0.4779815755446589,-0.47436557223671977,0.006730030834328909,0.02375136207160396,0.02364973077464676,-0.7043801027691532,-2.3899078777232945,-2.371827861183599,-0.13238080965059798,-0.4480574303768872,-0.44457816000285133,-0.1494046934971115,-0.5081394553992487,-0.5044061906672355
-134.50096130371094,12.488402366638184,21.30862808227539,-1.6175305843353271,-6.591639041900635,-6.775318145751953,0.4694448709487915,-0.6126412153244019,-3.9351918697357178,0.45,-0.1563258992129295,-1.5117981068312645,-1.7282004472043528,-0.5147065247609557,-1.835353010720654,-1.8318647431035397,-0.15369391453678613,-0.5234340638219208,-0.5196717301930983,0.5096783657199275,-0.02896674931381037,19.386556548001785,-12.363052368164062,-2.7734756469726562,-2.176966667175293,-0.5115145172685157,-1.8090392026808058,-1.8022456845659274,0.059298204268838875,0.0911477366204322,0.09072489052469263,0.0028828239873313513,0.021510075804881647,0.02372102805349039,-8.359150052070618,-33.127840995788574,-33.52467203140259,-2.5575725863425784,-9.045196013404029,-9.011228422829637,-1.5993891954421997,-6.488613605499268,-6.558766841888428,-0.5074742256575483,-1.7809500841220147,-1.771969696561551,-0.5147065247609557,-1.835353010720654,-1.8318647431035397,-0.14513864153106829,-0.49305690223366555,-0.4893842862747692,0.006753765061319986,0.02393039726841729,0.023847370018764625,-0.7256932076553414,-2.4652845111683277,-2.446921431373846,-0.13660976153107754,-0.462898681077904,-0.45934457414086427,-0.15369391453678613,-0.5234340638219208,-0.5196717301930983
-134.50650024414062,12.459983825683594,21.31528854370117,-1.5945671796798706,-6.591869354248047,-6.801050662994385,0.8062336444854736,0.7952451109886169,-3.583930969238281,0.4583333333333333,-0.11987579182831265,-1.4479563218017768,-1.6862211838292671,-0.5157054896928583,-1.8474193134023353,-1.845916586302117,-0.15799146028422661,-0.5388292247669403,-0.5350543684122826,0.53608821806338,-0.037149165329328264,19.399624891338142,-0.027637481689453125,-3.087902069091797,2.755608558654785,-0.5131607700755777,-1.8223330485368703,-1.8170350625140408,0.056067460100679006,0.08810670092503112,0.047584427529653736,0.0022875887198031872,0.02031708685989494,0.023171277457274615,-8.221361994743347,-33.048712730407715,-33.766955852508545,-2.5658038503778884,-9.111665242684351,-9.085175312570204,-1.5945671796798706,-6.488613605499268,-6.674670219421387,-0.5098497763954367,-1.7956556202159604,-1.7872436604559452,-0.5157054896928583,-1.8474193134023353,-1.845916586302117,-0.14941498128169808,-0.5082430109714728,-0.5045262451290529,0.0067725755357035886,0.024099550657247133,0.024040412511450115,-0.7470749064084904,-2.541215054857364,-2.5226312256452643,-0.1408585096677062,-0.477862477913037,-0.4742382713113305,-0.15799146028422661,-0.5388292247669403,-0.5350543684122826
-134.52455139160156,12.430557250976562,21.313690185546875,-1.5615274906158447,-6.560125350952148,-6.7182207107543945,-0.3344963192939758,1.5865074396133425,-3.051731586456299,0.4666666666666667,-0.0739756688047073,-1.353086308659189,-1.5368712909275537,-0.5163219535995642,-1.858695032641162,-1.8587238470598466,-0.16229414323088964,-0.5543183500389499,-0.550543733804448,0.530927811310423,0.0035206035639729276,19.314009969854357,3.8092803955078125,9.939594268798828,3.9647626876831055,-0.5144552055164031,-1.8349409310219105,-1.8313310998348207,0.054962348559042494,0.08746747513837243,0.030486697976646777,0.0017018251359899963,0.01914974723260475,0.02222710114332186,-8.080549240112305,-32.96171712875366,-33.81050634384155,-2.572276027582016,-9.174704655109553,-9.156655499174104,-1.5615274906158447,-6.488613605499268,-6.7182207107543945,-0.5121382505944562,-1.810482605181674,-1.802687249998431,-0.5163219535995642,-1.858695032641162,-1.8587238470598466,-0.15370210799433479,-0.5235341853966554,-0.5197873376276764,0.006786631092240934,0.02425908784500345,0.024225549114685302,-0.768510539971674,-2.617670926983277,-2.598936688138382,-0.14512632842266,-0.4929498329562176,-0.48926066506131743,-0.16229414323088964,-0.5543183500389499,-0.550543733804448
-134.54061889648438,12.401347160339355,21.306930541992188,-1.62547504901886,-6.626733779907227,-6.743089199066162,-0.1102308705449104,1.985615611076355,-2.546170234680176,0.475,-0.12495091754269527,-1.3569485385776963,-1.4964106919852318,-0.5173632112457534,-1.8700029371293094,-1.8711939361597236,-0.16660550332460425,-0.5699017078483608,-0.566137016605779,0.4697346340814573,0.013539219250488642,19.39145018952745,-7.993011474609375,-2.9842185974121094,-7.673707008361843,-0.5155001976466627,-1.8468449974114374,-1.8450324370670796,0.02482874233729052,0.05213051008668163,0.03158944095078087,0.00151764699650713,0.0186376759725252,0.02124922632472648,-7.998489499092102,-32.858981132507324,-33.78988456726074,-2.577500988233313,-9.234224987057187,-9.225162185335398,-1.5615274906158447,-6.488613605499268,-6.7182207107543945,-0.5134038089341812,-1.8227546931637266,-1.8174630727101702,-0.5173632112457534,-1.8700029371293094,-1.8711939361597236,-0.15799794297472364,-0.5389245603750841,-0.5351626079365687,0.006799192437751181,0.024414338443380285,0.024402506211832348,-0.7899897148736181,-2.6946228018754206,-2.6758130396828435,-0.1494046934971115,-0.5081394553992487,-0.5044061906672355,-0.16660550332460425,-0.5699017078483608,-0.566137016605779
-134.5547332763672,12.371044158935549,21.298110961914062,-1.6203306913375854,-6.612094402313232,-6.68820858001709,0.3246091902256012,2.2612757682800293,-2.526267766952514,0.48333333333333334,-0.10648832943072395,-1.2797969443046746,-1.3771477509695726,-0.5182506139910094,-1.8806679116651817,-1.8826701674178035,-0.170924258441196,-0.5855739404455707,-0.581825934667594,0.4486170432309958,0.038682648466078544,19.342819328269947,1.7567253112792969,6.585674285888672,0.6173229217529563,-0.5164695586580282,-1.8584276411117284,-1.858073856008606,0.026475334377588013,0.02512694484109186,0.044740239719338465,0.0013860600821826593,0.017904681350534843,0.020076443487739137,-8.019430994987488,-32.98246192932129,-33.725887298583984,-2.582347793290141,-9.292138205558642,-9.29036928004303,-1.5615274906158447,-6.560125350952148,-6.68820858001709,-0.5147065247609557,-1.835353010720654,-1.8318647431035397,-0.5182506139910094,-1.8806679116651817,-1.8826701674178035,-0.16230185596354052,-0.5544114573843485,-0.5506465567366404,0.006810716392202103,0.024563498143695715,0.024569670041633372,-0.8115092798177026,-2.7720572869217426,-2.753232783683202,-0.15369391453678613,-0.5234340638219208,-0.5196717301930983,-0.170924258441196,-0.5855739404455707,-0.581825934667594
-134.57518005371094,12.343505859375,21.288684844970703,-1.6027400493621826,-6.516302108764648,-6.666104793548584,-0.5671888589859009,2.067939758300781,-2.184471607208252,0.49166666666666664,-0.07592468138774233,-1.1230961593410678,-1.2919984078835558,-0.5188833196692405,-1.8900270463263573,-1.893436820816833,-0.17524828610510634,-0.6013241658316236,-0.5976045748410677,0.4611674276055669,-0.008158219270126112,19.257495964765774,11.495075225830078,2.652454376220703,2.11087703704834,-0.5173049176396851,-1.869362448232869,-1.8703882715512647,0.02537304546364792,0.04415101449288782,0.052357593816360196,0.0013146749371545164,0.01695983686100497,0.018825858960725746,-8.004640460014343,-32.9071249961853,-33.616673946380615,-2.586524588198426,-9.346812241164345,-9.351941357756324,-1.5615274906158447,-6.516302108764648,-6.666104793548584,-0.5157054896928583,-1.8474193134023353,-1.845916586302117,-0.5188833196692405,-1.8900270463263573,-1.893436820816833,-0.16661273027720455,-0.5699894777862891,-0.5662331256662343,0.0068216318092339774,0.024704713456861375,0.024726426519653278,-0.8330636513860228,-2.849947388931445,-2.8311656283311715,-0.15799146028422661,-0.5388292247669403,-0.5350543684122826,-0.17524828610510634,-0.6013241658316236,-0.5976045748410677
-134.6046905517578,12.319726943969728,21.28299331665039,-1.6464413404464722,-6.536403656005859,-6.611349582672119,-1.6088429689407349,1.448869228363037,-2.221074342727661,0.5,-0.10658354710386053,-1.0835879502535208,-1.175523750995496,-0.5197715158951061,-1.8990569459118034,-1.903232852075129,-0.17957971540423223,-0.6171496403808887,-0.6134648486083604,0.39193240593475565,0.02696424864551262,19.243501315235502,-2.4121856689453125,6.570625305175781,-5.244154930114746,-0.5181181228801346,-1.8796899747347626,-1.8818515247058674,0.031890337924133864,0.04769642644227181,0.05066779059771978,0.0013353748670890343,0.015949273285829332,0.01761053724946573,-8.056514620780945,-32.851659297943115,-33.42697286605835,-2.590590614400673,-9.398449873673814,-9.409257623529337,-1.5615274906158447,-6.516302108764648,-6.611349582672119,-0.5163219535995642,-1.858695032641162,-1.8587238470598466,-0.5197715158951061,-1.8990569459118034,-1.903232852075129,-0.1709303813012057,-0.5856535609090787,-0.5819152217054497,0.006832724517541623,0.024837439155805895,0.024873001130705355,-0.8546519065060284,-2.928267804545394,-2.909576108527249,-0.16229414323088964,-0.5543183500389499,-0.550543733804448,-0.17957971540423223,-0.6171496403808887,-0.6134648486083604
-134.6311798095703,12.299296379089355,21.28322410583496,-1.6415411233901978,-6.510908126831055,-6.668700218200684,-1.53986394405365,0.6643820405006409,-2.367818593978882,0.5083333333333333,-0.08846535513731513,-0.9991789886379197,-1.1718012108889182,-0.5205087271879171,-1.9073834374837861,-1.9129978621658699,-0.18391728813079822,-0.6330445023599203,-0.6294064974597426,0.41742150333492806,-0.021515650708678478,19.26428161529864,3.0594635009765625,-6.882076263427734,0.5880260467529297,-0.5189554775978052,-1.8894276557032879,-1.892706327727072,0.017494950946618303,0.05486879019012419,0.04738035025969113,0.0012365126766951313,0.014744027652564239,0.016481771822134575,-8.136528253555298,-32.80244207382202,-33.37745237350464,-2.5947773879890264,-9.447138278516439,-9.46353163863536,-1.6027400493621826,-6.510908126831055,-6.611349582672119,-0.5173632112457534,-1.8700029371293094,-1.8711939361597236,-0.5205087271879171,-1.9073834374837861,-1.9129978621658699,-0.1752550102811874,-0.6013987913732728,-0.5976877744365087,0.006843017595536916,0.024960158326531943,0.025010241214199112,-0.876275051405937,-3.006993956866364,-2.9884388721825434,-0.16660550332460425,-0.5699017078483608,-0.566137016605779,-0.18391728813079822,-0.6330445023599203,-0.6294064974597426
-134.65579223632812,12.28073787689209,21.28634262084961,-1.6617298126220703,-6.390902996063232,-6.619192123413086,-1.241803765296936,0.2732142210006714,-2.497823476791382,0.5166666666666666,-0.09546070657787742,-0.8221344121354388,-1.0618181170446563,-0.5213042330760661,-1.914234557584915,-1.9218463464745754,-0.18826149007309878,-0.6489964570064612,-0.6454218836803641,0.38876961208103056,-0.08108536736410484,19.15135829490672,14.400615692138672,5.940971374511719,-2.422642707824707,-0.5197436819638679,-1.8982739797944088,-1.9028368097900423,0.0231467248138552,0.07951394635402478,0.03357607077134516,0.0012238120715510517,0.013382085462839878,0.015490477535447075,-8.172783017158508,-32.56661128997803,-33.25355529785156,-2.598718409819339,-9.491369898972044,-9.514184048950211,-1.6027400493621826,-6.390902996063232,-6.611349582672119,-0.5182506139910094,-1.8806679116651817,-1.8826701674178035,-0.5213042330760661,-1.914234557584915,-1.9218463464745754,-0.1795862076308863,-0.6172177412048929,-0.6135447478514258,0.006853206417921048,0.02507146609703511,0.025139239738771683,-0.8979310381544315,-3.086088706024465,-3.067723739257129,-0.170924258441196,-0.5855739404455707,-0.581825934667594,-0.18826149007309878,-0.6489964570064612,-0.6454218836803641
-134.681884765625,12.264086723327637,21.285720825195312,-1.7263758182525637,-6.3976922035217285,-6.643619060516357,-1.4690276384353638,0.4192409813404083,-1.9723730087280276,0.525,-0.14635144254338006,-0.7734715020118346,-1.0266425438523878,-0.5225238284305943,-1.9206801534350135,-1.9304017010066787,-0.1926158553100204,-0.665002124951753,-0.6615085645220864,0.33480350944545884,-0.11113476348716025,19.186783504620006,-0.8147048950195312,-2.931232452392578,-7.757520675659206,-0.5205983248517848,-1.906276428148375,-1.9123831165078173,0.04506207198232404,0.07019719206344062,0.026248797471660913,0.0013998887474938454,0.012126293016535089,0.014639753076561929,-8.278828144073486,-32.35220909118652,-33.20896577835083,-2.602991624258924,-9.531382140741876,-9.561915582539086,-1.6027400493621826,-6.390902996063232,-6.611349582672119,-0.5188833196692405,-1.8900270463263573,-1.893436820816833,-0.5225238284305943,-1.9206801534350135,-1.9304017010066787,-0.1839245270046512,-0.6331033781061294,-0.6294812738223242,0.006864820331957111,0.0251722245431398,0.02526116484989403,-0.919622635023256,-3.1655168905306468,-3.147406369111621,-0.17524828610510634,-0.6013241658316236,-0.5976045748410677,-0.1926158553100204,-0.665002124951753,-0.6615085645220864
-134.7069091796875,12.248299598693848,21.27887344360352,-1.7333917617797852,-6.248996257781982,-6.582307815551758,-1.0394641160964966,0.868194580078125,-1.4367152452468872,0.5333333333333333,-0.13916641533834628,-0.5711408858839633,-0.9066950724489296,-0.5236835485584138,-1.9254396608173798,-1.9379574932770864,-0.19697988488134052,-0.6810474554585645,-0.6776582102993954,0.3172819761921775,-0.179166733722754,19.04301732032187,17.84351348876953,7.357349395751953,-0.8419132232665749,-0.5215583706296194,-1.9133589510465796,-1.921287250999868,0.0445041901866237,0.11440615094759146,0.03278361146679993,0.0015658605531419058,0.010494812444753596,0.013747345671388038,-8.409479856491089,-32.08490324020386,-33.125168800354004,-2.6077918531480972,-9.566794755232898,-9.60643625499934,-1.6415411233901978,-6.248996257781982,-6.582307815551758,-0.5197715158951061,-1.8990569459118034,-1.903232852075129,-0.5236835485584138,-1.9254396608173798,-1.9379574932770864,-0.18827084675989805,-0.6490480360315176,-0.6454920009139897,0.0068777861414023,0.025259251732785783,0.02537558944462794,-0.9413542337994902,-3.245240180157588,-3.2274600045699486,-0.17957971540423223,-0.6171496403808887,-0.6134648486083604,-0.19697988488134052,-0.6810474554585645,-0.6776582102993954
-134.74026489257812,12.236400604248049,21.26704406738281,-1.7732994556427002,-6.334242820739746,-6.590393543243408,-2.058090925216675,0.953361749649048,-0.6410346031188965,0.5416666666666666,-0.1646402692607436,-0.6038944256600063,-0.857242117835157,-0.5250555508022533,-1.9304721143645465,-1.9451011775923794,-0.20135534780469264,-0.6971347230782691,-0.6938673867793319,0.2706318483895225,-0.1334813423869089,19.116419894899003,-10.22958755493164,-0.9702873229980469,-4.788923263549805,-0.5226151776110488,-1.9196419847371282,-1.9296609161033182,0.05431726613131223,0.0958709576338668,0.03613833669486951,0.0018207753448165214,0.009103499314709029,0.012713265659644282,-8.536337971687317,-31.882742404937744,-33.10421276092529,-2.6130758880552443,-9.59820992368564,-9.64830458051659,-1.6415411233901978,-6.248996257781982,-6.582307815551758,-0.5205087271879171,-1.9073834374837861,-1.9129978621658699,-0.5250555508022533,-1.9304721143645465,-1.9451011775923794,-0.19262597323999012,-0.6650450525709937,-0.6615725085481842,0.006892904665111435,0.02533484915895388,0.02548140499754247,-0.9631298661999506,-3.325225262854968,-3.3078625427409207,-0.18391728813079822,-0.6330445023599203,-0.6294064974597426,-0.20135534780469264,-0.6971347230782691,-0.6938673867793319
-134.77359008789062,12.22869873046875,21.252626419067383,-1.8242334127426147,-6.494919776916504,-6.538360595703125,-1.839166283607483,0.8154035806655884,-0.1163014471530914,0.55,-0.2005393588977602,-0.7106018175645241,-0.7486820217047727,-0.5267267121264013,-1.9363937961775841,-1.9513401944399191,-0.20574473707241264,-0.7132713380464156,-0.7101285550663312,0.18201103818860329,-0.0012436618683943624,19.203020822263394,-19.281234741210938,6.243953704833984,-6.112074851989746,-0.5238587745987457,-1.9254440564758877,-1.937329382558128,0.060181394081058624,0.09037849007458666,0.03980939281862471,0.0021210732408352474,0.008566297662310903,0.01167063996490312,-8.719030261039734,-31.866754055023193,-32.973873138427734,-2.6192938729937287,-9.627220282379438,-9.68664691279064,-1.6617298126220703,-6.248996257781982,-6.538360595703125,-0.5213042330760661,-1.914234557584915,-1.9218463464745754,-0.5267267121264013,-1.9363937961775841,-1.9513401944399191,-0.196991463028313,-0.6810904197082926,-0.6777169200695018,0.006910531846198956,0.025406144393235287,0.025578483486504818,-0.984957315141565,-3.4054520985414634,-3.388584600347509,-0.18826149007309878,-0.6489964570064612,-0.6454218836803641,-0.20574473707241264,-0.7132713380464156,-0.7101285550663312
-134.80169677734375,12.225552558898926,21.24291610717773,-1.8920629024505613,-6.694188594818115,-6.481927871704102,-1.482756733894348,0.0351043082773685,-0.069363348186016,0.5583333333333333,-0.2525028650160186,-0.8534764917741073,-0.6372709355697284,-0.5288309026682014,-1.9435061002757017,-1.9566507855696669,-0.21015166126131432,-0.7294672222153799,-0.7264339782794118,0.07278559205015248,0.15472920162525114,19.316745659559395,-23.91225814819336,6.7719268798828125,-8.139538764953587,-0.525364108517173,-1.931298365014045,-1.9442902703771459,0.06913775896619996,0.17095720174376916,0.060640399703572774,0.0024930920004130213,0.008982562845552914,0.01044195576252981,-8.949363350868225,-32.170039653778076,-32.83660888671875,-2.6268205425858646,-9.656491825070225,-9.72145135188573,-1.7263758182525637,-6.248996257781982,-6.481927871704102,-0.5225238284305943,-1.9206801534350135,-1.9304017010066787,-0.5288309026682014,-1.9435061002757017,-1.9566507855696669,-0.2013694972659561,-0.6971845727500764,-0.6939193389893114,0.006931166431282748,0.02548074007932794,0.02566527693628418,-1.0068474863297805,-3.485922863750382,-3.469596694946557,-0.1926158553100204,-0.665002124951753,-0.6615085645220864,-0.21015166126131432,-0.7294672222153799,-0.7264339782794118
-134.818603515625,12.227025985717772,21.23871612548828,-1.9021841287612915,-6.818619251251221,-6.54159688949585,-0.1324512064456939,-0.811612606048584,-0.1756624281406402,0.5666666666666667,-0.24627872679920015,-0.9194161498550777,-0.6425564181603791,-0.5308832253915281,-1.951167901524494,-1.96200542238767,-0.21457568813957706,-0.7457269547280839,-0.7427840234659757,0.07208843013046329,0.2060861509979883,19.446217856322836,-14.931678771972656,-7.160282135009766,-1.2145471572876243,-0.5270359879093596,-1.937395914631941,-1.9506110146533444,0.07334919900190383,0.23878681874165153,0.043208280642009864,0.0028844231434804685,0.010233489732084275,0.009451361954220446,-9.125171661376953,-32.59096670150757,-32.73458671569824,-2.635179939546798,-9.686979573159705,-9.753055073266722,-1.7333917617797852,-6.248996257781982,-6.481927871704102,-0.5236835485584138,-1.9254396608173798,-1.9379574932770864,-0.5308832253915281,-1.951167901524494,-1.96200542238767,-0.20576146383186744,-0.7133295387053427,-0.7101744307780893,0.006955117732827028,0.025565727709594633,0.0257438575343485,-1.0288073191593372,-3.566647693526713,-3.550872153890446,-0.19697988488134052,-0.6810474554585645,-0.6776582102993954,-0.21457568813957706,-0.7457269547280839,-0.7427840234659757
-134.8263397216797,12.228007316589355,21.23707389831543,-1.886033058166504,-6.6300129890441895,-6.60037899017334,0.7599358558654785,-0.984559953212738,-0.3850075304508209,0.575,-0.21401586513445725,-0.6735134724120195,-0.6465742460111965,-0.5326666909343153,-1.9567805137945942,-1.9673935411044299,-0.21901457723069634,-0.7620334590097055,-0.759178969641846,0.13153022204894607,0.043174883520320936,19.35253799968509,22.63275146484375,-7.053852081298828,1.9381284713745117,-0.5288326163845399,-1.9436640852273839,-1.956498224218813,0.05518838360030347,0.18646607863536074,0.04745569186018873,0.003066194100465587,0.010668389226323583,0.008740114125141472,-9.277812957763672,-32.971983432769775,-32.752657890319824,-2.6441630819226996,-9.71832042613692,-9.782491121094065,-1.7732994556427002,-6.334242820739746,-6.481927871704102,-0.5250555508022533,-1.9304721143645465,-1.9451011775923794,-0.5326666909343153,-1.9567805137945942,-1.9673935411044299,-0.21016840230173858,-0.7295267394155708,-0.7264785826465793,0.006980651889717545,0.02565452266808565,0.025816652558338236,-1.050842011508693,-3.647633697077854,-3.6323929132328963,-0.20135534780469264,-0.6971347230782691,-0.6938673867793319,-0.21901457723069634,-0.7620334590097055,-0.759178969641846
-134.84190368652344,12.230352401733398,21.233722686767575,-1.8339602947235107,-6.681034088134766,-6.594120025634766,0.0070567219518125,-0.9576138854026794,-0.1704627573490142,0.5833333333333334,-0.1465880205161001,-0.6690434718603706,-0.5857311082912515,-0.5338882577719495,-1.9623558760600972,-1.9722746336735237,-0.2234636460454626,-0.7783864246435397,-0.7756145915891253,0.17004724016020237,0.10421771388488162,19.372545077862124,-6.122531890869141,0.7510757446289062,6.24873161315918,-0.5305991577784791,-1.9500408375664944,-1.961932915435042,0.03586962139681874,0.11710205245095265,0.048260672185485055,0.002885139857511956,0.010335596403371849,0.008319877704642086,-9.338473796844482,-33.318774700164795,-32.75638437271118,-2.6529957888923956,-9.750204187832471,-9.80966457717521,-1.8242334127426147,-6.494919776916504,-6.481927871704102,-0.5267267121264013,-1.9363937961775841,-1.9513401944399191,-0.5338882577719495,-1.9623558760600972,-1.9722746336735237,-0.2145900619498926,-0.745777079728625,-0.742828023608538,0.00700457367793058,0.02574041787752828,0.025885972926176323,-1.072950309749463,-3.7288853986431247,-3.71414011804269,-0.20574473707241264,-0.7132713380464156,-0.7101285550663312,-0.2234636460454626,-0.7783864246435397,-0.7756145915891253
-134.8503875732422,12.23243236541748,21.23021507263184,-1.8276872634887693,-6.862916946411133,-6.650877952575684,0.7152518630027771,-0.9222789406776428,-0.1374075561761856,0.5916666666666667,-0.12562730376270825,-0.7941012435471784,-0.5881019540067873,-0.5349351519699721,-1.9689733864229904,-1.977175483290247,-0.2279214389785457,-0.7947945361970646,-0.7920910539498773,0.1770804888088804,0.20287376369955049,19.536342170775157,-21.825942993164062,-6.810951232910156,0.752763748168972,-0.5322408457471932,-1.9565567556155756,-1.9670999732051075,0.034841943888213614,0.09865010375274669,0.06429985086692902,0.002430300462745454,0.00983885079004231,0.00811663672380449,-9.341927647590637,-33.686771869659424,-32.86890172958374,-2.6612042287359663,-9.782783778077878,-9.835499866025538,-1.8276872634887693,-6.6300129890441895,-6.481927871704102,-0.5288309026682014,-1.9435061002757017,-1.9566507855696669,-0.5349351519699721,-1.9689733864229904,-1.977175483290247,-0.2190254023311192,-0.7620817193587548,-0.7592205233852473,0.007024614392325524,0.025822266936802805,0.025953588615839,-1.095127011655596,-3.8104085967937738,-3.796102616926236,-0.21015166126131432,-0.7294672222153799,-0.7264339782794118,-0.2279214389785457,-0.7947945361970646,-0.7920910539498773
-134.84007263183594,12.232754707336426,21.22587776184082,-1.8348225355148315,-6.771714687347412,-6.691848278045654,3.13702654838562,-0.704378604888916,-0.2599204182624817,0.6,-0.11823754728468705,-0.6459524886068326,-0.5744836187880322,-0.5359204648640111,-1.9743563238280473,-1.9819628467801473,-0.23238744285241245,-0.8112475055622984,-0.8086074110063786,0.19800782258100824,0.10898176017461965,19.50290682913017,10.944271087646484,-4.916439056396484,-0.856232643127468,-0.5336587581863552,-1.9627268003260447,-1.9721623854472035,0.034519591798477516,0.09623234841862308,0.0575059289650378,0.0019675459317462667,0.009265118787409073,0.007859684582526087,-9.284687280654907,-33.76429796218872,-33.07882213592529,-2.6682937909317763,-9.813634001630223,-9.860811927236018,-1.8276872634887693,-6.6300129890441895,-6.54159688949585,-0.5308832253915281,-1.951167901524494,-1.96200542238767,-0.5359204648640111,-1.9743563238280473,-1.9819628467801473,-0.22347255864933882,-0.7784377760281385,-0.7756552099306406,0.007040874930873362,0.025899440337866994,0.026019067853496655,-1.117362793246694,-3.8921888801406923,-3.878276049653203,-0.21457568813957706,-0.7457269547280839,-0.7427840234659757,-0.23238744285241245,-0.8112475055622984,-0.8086074110063786
-134.8250732421875,12.227919578552246,21.218769073486328,-1.8447635173797607,-6.7656025886535645,-6.712002754211426,3.625233888626098,-0.0387671440839767,-0.4282315671443939,0.6083333333333333,-0.11367837981797302,-0.5843609745721858,-0.5401597832178151,-0.5368677846958275,-1.979225998616149,-1.9864641783069625,-0.236861341058211,-0.8277410555507663,-0.8251612791589366,0.19778800389863885,0.08623659466949195,19.514687267009,0.7334518432617188,-2.418537139892578,-1.192917823791504,-0.5348556700472151,-1.9683384197443754,-1.977054136631062,0.023494291594195645,0.08988681417669933,0.0528703311427804,0.0016519856842698577,0.00900741007185145,0.007563560655108225,-9.227266669273376,-33.711281299591064,-33.24922800064087,-2.6742783502360754,-9.841692098721877,-9.88527068315531,-1.8276872634887693,-6.6300129890441895,-6.594120025634766,-0.5326666909343153,-1.9567805137945942,-1.9673935411044299,-0.5368677846958275,-1.979225998616149,-1.9864641783069625,-0.2279296892330656,-0.7948405961926749,-0.7921306610692327,0.007054622659850336,0.025974396210839086,0.026082087280357956,-1.139648446165328,-3.9742029809633745,-3.9606533053461637,-0.21901457723069634,-0.7620334590097055,-0.759178969641846,-0.236861341058211,-0.8277410555507663,-0.8251612791589366
-134.8072967529297,12.21688461303711,21.210834503173828,-1.8113539218902588,-6.876132965087891,-6.679011821746826,4.120933532714844,0.554099977016449,-0.9281830191612244,0.6166666666666667,-0.066135728652575,-0.6391662314432294,-0.45342533960092624,-0.5374189157679323,-1.9845523838781758,-1.990242722803637,-0.24133983202294376,-0.8442789920830844,-0.8417466351823002,0.20180194864413184,0.1932517832341012,19.56158121643612,-13.26364517211914,3.958911895751953,4.009151458740234,-0.5358061150139385,-1.9738927937610922,-1.9816239729709035,0.012334789643060414,0.0798873726886561,0.0456842046100751,0.0014298686738952787,0.008654274004939351,0.007159337915819755,-9.152587532997131,-33.957401275634766,-33.327860832214355,-2.6790305750696923,-9.86946396880546,-9.908119864854518,-1.8113539218902588,-6.681034088134766,-6.594120025634766,-0.5338882577719495,-1.9623558760600972,-1.9722746336735237,-0.5374189157679323,-1.9845523838781758,-1.990242722803637,-0.2323947401915151,-0.8112897028073507,-0.8086441941773236,0.007066472083258256,0.02604639240874096,0.026141672423085592,-1.1619737009575755,-4.056448514036753,-4.043220970886618,-0.2234636460454626,-0.7783864246435397,-0.7756145915891253,-0.24133983202294376,-0.8442789920830844,-0.8417466351823002
-134.78167724609375,12.20100212097168,21.20477294921875,-1.8649380207061768,-6.857271671295166,-6.67607307434082,4.873325824737549,0.8095250725746155,-1.455785036087036,0.625,-0.10558295317353328,-0.56444520227942,-0.397667909253669,-0.5382987737110451,-1.989256093897171,-1.9935566220474177,-0.24582565513720248,-0.8608561261988942,-0.8583596070326953,0.15303948265576428,0.15769328532802696,19.55791424015784,2.263355255126953,0.3526496887207031,-6.430091857910156,-0.5366882182017576,-1.9792728373285065,-1.9858803706456825,0.019934788950779145,0.05349342659358698,0.022415320684730986,0.0013060186166513135,0.008027951346788369,0.006508030432242357,-9.183565258979797,-34.133638858795166,-33.40981388092041,-2.6834410910087882,-9.896364186642533,-9.929401853228413,-1.8113539218902588,-6.7656025886535645,-6.650877952575684,-0.5349351519699721,-1.9689733864229904,-1.977175483290247,-0.5382987737110451,-1.989256093897171,-1.9935566220474177,-0.23686714200986306,-0.8277836431184216,-0.8251931972660376,0.00707730977000964,0.026113274923969667,0.02619574517167861,-1.1843357100493153,-4.138918215592108,-4.125965986330188,-0.2279214389785457,-0.7947945361970646,-0.7920910539498773,-0.24582565513720248,-0.8608561261988942,-0.8583596070326953
-134.7605743408203,12.178788185119627,21.198265075683597,-1.8501238822937007,-6.804039001464844,-6.672028541564941,4.482414722442627,1.3788143396377563,-1.997590184211731,0.6333333333333333,-0.07647164624540226,-0.4566023226164404,-0.3414789012783199,-0.5389360374297567,-1.9930611132523082,-1.9964022795580703,-0.25031678878245045,-0.8774649688093301,-0.8749962926956792,0.16883659317016295,0.12289142497193095,19.515166761844977,6.387920379638672,0.48534393310546875,1.7776966094971236,-0.5374883952937146,-1.98409038269437,-1.9897257298992468,0.01992039400615476,0.04989485998110579,0.016222975076891053,0.0011832974778594916,0.007513091217012294,0.005710065778361722,-9.206001877784729,-34.07476091384888,-33.43096446990967,-2.687441976468573,-9.920451913471851,-9.948628649496234,-1.8113539218902588,-6.7656025886535645,-6.672028541564941,-0.5359204648640111,-1.9743563238280473,-1.9819628467801473,-0.5389360374297567,-1.9930611132523082,-1.9964022795580703,-0.24134621197064404,-0.8443177296408747,-0.841774245015198,0.007087141725295383,0.02617577778355836,0.02624313700926783,-1.2067310598532202,-4.221588648204373,-4.20887122507599,-0.23238744285241245,-0.8112475055622984,-0.8086074110063786,-0.25031678878245045,-0.8774649688093301,-0.8749962926956792
-134.73513793945312,12.150218963623049,21.19610595703125,-1.8279056549072263,-6.918540000915527,-6.720409870147705,4.749404430389404,1.55466890335083,-2.859675884246826,0.6416666666666666,-0.0404371661351306,-0.5166084484348454,-0.3379526868799436,-0.5392730138142161,-1.9973661836559318,-1.9992185519487364,-0.2548107305642356,-0.8941096870064629,-0.8916564472952521,0.19204661338875936,0.1769210627610189,19.623417380613454,-13.740119934082031,-5.805759429931641,2.6661872863769265,-0.5381589050837555,-1.9886923546599473,-1.993176870932965,0.02069898847483314,0.06022335246202268,0.022518907953771376,0.001009865365167563,0.007095604587326772,0.005017939037650205,-9.199084997177124,-34.22158622741699,-33.45952606201172,-2.6907945254187777,-9.943461773299736,-9.965884354664825,-1.8113539218902588,-6.7656025886535645,-6.672028541564941,-0.5368677846958275,-1.979225998616149,-1.9864641783069625,-0.5392730138142161,-1.9973661836559318,-1.9992185519487364,-0.24583086951300864,-0.8608901659297075,-0.8583840522729727,0.007095478521911724,0.0262347881888206,0.026284861140903722,-1.2291543475650433,-4.3044508296485375,-4.291920261364863,-0.236861341058211,-0.8277410555507663,-0.8251612791589366,-0.2548107305642356,-0.8941096870064629,-0.8916564472952521
-134.7061004638672,12.11518669128418,21.19552993774414,-1.8226548433303835,-6.905029296875,-6.780909061431885,5.287891387939453,1.9644964933395384,-3.5782570838928223,0.65,-0.021766640284040406,-0.44838355282086795,-0.34623611517369657,-0.5394544024832498,-2.0011027132627723,-2.002103852908517,-0.25930618391826266,-0.9107855429503193,-0.9083406460694897,0.2184485475101709,0.12560205611220998,19.65473119610779,1.6212844848632812,-7.2599029541015625,0.6300973892211381,-0.5386762286412401,-1.9930676975892716,-1.9963048058532755,0.021714657286502157,0.045026112752226725,0.046358825972179114,0.000829535346352551,0.00652068617929844,0.0046483795379264285,-9.176976323127747,-34.36101293563843,-33.52843236923218,-2.6933811432062003,-9.965338487946358,-9.981524029266378,-1.8113539218902588,-6.804039001464844,-6.672028541564941,-0.5374189157679323,-1.9845523838781758,-1.990242722803637,-0.5394544024832498,-2.0011027132627723,-2.002103852908517,-0.250319838085019,-0.877499063409618,-0.8750199256550832,0.0071021251262593805,0.02628908612367505,0.02632357733678018,-1.251599190425095,-4.38749531704809,-4.375099628275416,-0.24133983202294376,-0.8442789920830844,-0.8417466351823002,-0.25930618391826266,-0.9107855429503193,-0.9083406460694897
-134.67971801757812,12.06938362121582,21.19589614868164,-1.7417147159576416,-6.8870768547058105,-6.828868865966797,4.801145553588867,2.7971386909484863,-4.542300224304199,0.6583333333333333,0.07170426966303967,-0.37661828638363115,-0.34167945236635866,-0.5388568669027245,-2.004241198982636,-2.0049511816782366,-0.2637966578091187,-0.9274875529418413,-0.9250485725834751,0.3075002649176929,0.10524256377881394,19.658513356482963,2.1542930603027344,-5.755176544189453,9.71281528472903,-0.5389638188681984,-1.9970054606101642,-1.9992464976281958,0.04773426599912392,0.045528138385471824,0.06813130870874479,0.0004446260761333199,0.006018389957895332,0.004504801350421926,-9.10733711719513,-34.37195682525635,-33.67828941345215,-2.694819094340992,-9.98502730305082,-9.99623248814098,-1.7417147159576416,-6.804039001464844,-6.672028541564941,-0.5382987737110451,-1.989256093897171,-1.9935566220474177,-0.5394544024832498,-2.004241198982636,-2.0049511816782366,-0.2548112032422539,-0.8941407755813696,-0.8916803131353183,0.007104278312380355,0.02633916866383674,0.026361117175033786,-1.2740560162112697,-4.470703877906848,-4.458401565676591,-0.24582565513720248,-0.8608561261988942,-0.8583596070326953,-0.2637966578091187,-0.9274875529418413,-0.9250485725834751
-134.666015625,12.01675033569336,21.191654205322266,-1.6706178188323977,-6.8677659034729,-6.982064247131348,3.53243350982666,3.751921653747559,-4.780423164367676,0.6666666666666666,0.1538947017503023,-0.30443860731193606,-0.4412795582328659,-0.5375744110548053,-2.006778187376902,-2.008628511330177,-0.2682764445679088,-0.9442107045033155,-0.9417871435112265,0.427279172202879,0.01775113540997213,19.73590101495921,2.3173141479492188,-18.383445739746094,8.53162765502927,-0.5388189463369505,-2.0005098793061102,-2.0022608754847475,0.07488004209043402,0.04477731731694723,0.11938082801611342,0.0007372242110823779,0.005452816308192811,0.004779855345513647,-8.91301691532135,-34.38245105743408,-33.984280586242676,-2.6940947316847526,-10.00254939653055,-10.011304377423738,-1.6706178188323977,-6.804039001464844,-6.672028541564941,-0.5375744110548053,-1.9930611132523082,-1.9964022795580703,-0.5394544024832498,-2.006778187376902,-2.008628511330177,-0.25930136112839525,-0.9108116912422538,-0.9083658204310245,0.007100143332295752,0.026384370261961075,0.026400891184914566,-1.2965068056419762,-4.554058456211269,-4.5418291021551225,-0.25031678878245045,-0.8774649688093301,-0.8749962926956792,-0.2682764445679088,-0.9442107045033155,-0.9417871435112265
-134.65652465820312,11.959010124206545,21.181472778320312,-1.5892127752304075,-6.874215602874756,-6.959136486053467,3.0376946926116943,4.682564735412598,-4.691593170166016,0.675,0.2449639528490073,-0.2587512223597601,-0.36428623300743634,-0.5355330447810636,-2.0089344475632336,-2.0116642299385723,-0.2727392199410843,-0.9609518248996758,-0.9585510120940479,0.48303659906605656,0.05989306145643048,19.70813651635675,-0.7739639282226562,2.751331329345703,9.768605232238823,-0.5381383478072118,-2.0036845461682953,-2.005313265560848,0.1020466450186159,0.021160561890054445,0.1132187357308713,0.0016310552617228656,0.00458338054630397,0.004972488596390916,-8.652105808258057,-34.452627658843994,-34.2713885307312,-2.690691739036059,-10.018422730841475,-10.02656632780424,-1.5892127752304075,-6.8677659034729,-6.720409870147705,-0.5355330447810636,-1.9973661836559318,-1.9992185519487364,-0.5394544024832498,-2.0089344475632336,-2.0116642299385723,-0.263785847360122,-0.927509062460323,-0.9250767643106983,0.0070878164263419256,0.026422329830451882,0.026442286567434005,-1.31892923680061,-4.637545312301615,-4.625383821553491,-0.2548107305642356,-0.8941096870064629,-0.8916564472952521,-0.2727392199410843,-0.9609518248996758,-0.9585510120940479
-134.6514434814453,11.895959854125977,21.16863822937012,-1.5827299356460571,-7.00478982925415,-6.958040714263916,2.7094614505767822,5.345115661621094,-4.959889888763428,0.6833333333333333,0.260238586529268,-0.3366507218036583,-0.3099616170667554,-0.5333643898933197,-2.0117398702449307,-2.0142472434141285,-0.2771839231901953,-0.9777163238183836,-0.9753364057891657,0.46340731849691474,0.15049094250940842,19.797444683999654,-15.668907165527344,0.13149261474609375,0.7779407501220437,-0.5369566230230326,-2.0065592834860952,-2.0083190038539263,0.10239789571677643,0.0560686858651308,0.09059029915726226,0.0025080971350615365,0.004113255305690924,0.00490919250492949,-8.406930088996887,-34.53887748718262,-34.50901937484741,-2.684783115115163,-10.032796417430475,-10.041595019269632,-1.5827299356460571,-6.8677659034729,-6.780909061431885,-0.5333643898933197,-2.0011027132627723,-2.002103852908517,-0.5394544024832498,-2.0117398702449307,-2.0142472434141285,-0.2682604858853139,-0.944230389822707,-0.941812756009481,0.007067395764477557,0.026456544196310956,0.02648313122102332,-1.3413024294265696,-4.721151949113535,-4.709063780047405,-0.25930618391826266,-0.9107855429503193,-0.9083406460694897,-0.2771839231901953,-0.9777163238183836,-0.9753364057891657
-134.63665771484375,11.82457447052002,21.15579414367676,-1.5603294372558594,-7.084403038024902,-6.9552083015441895,3.734607458114624,6.055052280426025,-5.638501167297363,0.6916666666666667,0.29106338250746666,-0.3624402379357159,-0.2545618735456223,-0.5309388617057574,-2.014760205561062,-2.016368592360342,-0.2816084137044099,-0.9945059921980591,-0.9921394773921686,0.46273213994461726,0.20952120638756172,19.846946582828316,-9.553585052490234,0.3398895263671875,2.6880598068237305,-0.5352535148675341,-2.009290781945753,-2.0111719517442914,0.07562441252737494,0.0966042814948227,0.06121037702535911,0.0031872349712874625,0.0041185865882979265,0.004524154609552766,-8.144604682922363,-34.71825122833252,-34.68331861495972,-2.6762675743376705,-10.046453909728765,-10.055859758721457,-1.5603294372558594,-6.8677659034729,-6.828868865966797,-0.5309388617057574,-2.004241198982636,-2.0049511816782366,-0.5388568669027245,-2.014760205561062,-2.016368592360342,-0.27272093184254337,-0.960974479672255,-0.9585725222740168,0.007040988819527674,0.026490803171496276,0.026520618734138832,-1.363604659212717,-4.804872398361275,-4.792862611370084,-0.2637966578091187,-0.9274875529418413,-0.9250485725834751,-0.2816084137044099,-0.9945059921980591,-0.9921394773921686
-134.62026977539062,11.746448516845703,21.14664459228516,-1.5249742269515991,-7.06093692779541,-6.8926849365234375,3.972998142242432,6.302638530731201,-6.550034046173096,0.7,0.3342347116124753,-0.2853120776557896,-0.14064668937452662,-0.5281535724423202,-2.0171378062081935,-2.01754064810513,-0.28600969347476257,-1.0113154739164607,-1.008952316126378,0.46169224227973177,0.236030618673894,19.78108881445832,2.8159332275390625,7.502803802490234,4.2426252365112305,-0.5331128559754532,-2.0118701033908644,-2.0136898450296696,0.05376662752987391,0.1022737760249362,0.0334915859144469,0.0037130446112119387,0.004203094931984499,0.003606774177281909,-7.927864193916321,-34.89211130142212,-34.74713468551636,-2.665564279877266,-10.059350516954321,-10.068449225148349,-1.5249742269515991,-6.8677659034729,-6.8926849365234375,-0.5281535724423202,-2.006778187376902,-2.008628511330177,-0.5375744110548053,-2.0171378062081935,-2.01754064810513,-0.2771635389756722,-0.9777400638671789,-0.9753532709825972,0.007010114518046447,0.026525779834650973,0.026550299724372412,-1.385817694878361,-4.888700319335895,-4.876766354912986,-0.2682764445679088,-0.9442107045033155,-0.9417871435112265,-0.28600969347476257,-1.0113154739164607,-1.008952316126378
-134.60777282714844,11.66301727294922,21.14187812805176,-1.5299948453903198,-7.017342567443848,-6.881536483764648,3.2601418495178223,6.392840385437012,-7.336174011230469,0.7083333333333334,0.3366583032836823,-0.18925674323845154,-0.07934349623704673,-0.5253480865816228,-2.0187149457351805,-2.0182018439071054,-0.2903875941962761,-1.0281380984642539,-1.025770664825604,0.44521289863014113,0.202990675250468,19.744792678955054,5.2313232421875,1.3378143310546875,-0.6024742126464844,-0.5306675910808167,-2.01425745506252,-2.015604511545056,0.02943085765754782,0.08160120461004924,0.03876047831042549,0.004050813780216181,0.003971493611778637,0.0026667665622578593,-7.787241220474243,-35.041687965393066,-34.64660692214966,-2.6533379554040835,-10.0712872753126,-10.078022557725278,-1.5249742269515991,-6.874215602874756,-6.881536483764648,-0.5253480865816228,-2.0089344475632336,-2.0116642299385723,-0.5355330447810636,-2.0187149457351805,-2.0182018439071054,-0.2815857689013456,-0.9945255426593667,-0.9921499752454729,0.006976414267228784,0.02655866357625836,0.02657186472493076,-1.4079288445067282,-4.972627713296833,-4.960749876227364,-0.2727392199410843,-0.9609518248996758,-0.9585510120940479,-0.2903875941962761,-1.0281380984642539,-1.025770664825604
-134.59521484375,11.584359169006348,21.142772674560547,-1.5407519340515137,-6.9444260597229,-6.887824535369873,3.266686201095581,5.501809597015381,-7.425426483154297,0.7166666666666667,0.333365486623348,-0.06548873502549135,-0.03612423357170158,-0.5225700408597616,-2.0192606851937263,-2.0185028791868698,-0.2947423445367741,-1.0449652708408683,-1.0425915221521613,0.43462059361356775,0.13690299290520044,19.701079777325923,8.749980926513672,-0.7545661926269531,-1.2908506393432617,-0.5280749902965564,-2.016322702588618,-2.016972241394715,0.02379491665820411,0.054187407588650774,0.03816237692559111,0.0042990160173136,0.003100915680151924,0.0017297302340822576,-7.738780379295349,-35.11189842224121,-34.575294971466064,-2.640374951482782,-10.081613512943091,-10.084861206973574,-1.5249742269515991,-6.9444260597229,-6.881536483764648,-0.5225700408597616,-2.0117398702449307,-2.0142472434141285,-0.5333643898933197,-2.0192606851937263,-2.0185028791868698,-0.2859863938204836,-1.0113282318476051,-1.0089580772570954,0.006940604794643815,0.026583689919108238,0.026585493427635328,-1.429931969102418,-5.056641159238025,-5.044790386285477,-0.2771839231901953,-0.9777163238183836,-0.9753364057891657,-0.2947423445367741,-1.0449652708408683,-1.0425915221521613
-134.58432006835938,11.506988525390623,21.14516258239746,-1.5735219717025757,-6.8776535987854,-6.861291885375977,2.8942806720733643,5.278786659240723,-7.413694858551025,0.725,0.30831353305478815,0.05034248523858231,0.03914270830224531,-0.5200007614176383,-2.018841164483405,-2.0181766899510176,-0.29907568421525443,-1.0617889472115634,-1.0594096612350865,0.39065555769204713,0.08793075947000673,19.643365302551622,8.0126953125,3.183917999267578,-3.9324045181274414,-0.52540226460142,-2.0177429614363134,-2.017758130702093,0.020545957238013918,0.0853648247387248,0.03534428745173695,0.004342357238763677,0.0018518459894452722,0.0008521794183331718,-7.729572415351868,-34.98476219177246,-34.478546142578125,-2.6270113230071,-10.088714807181567,-10.088790653510465,-1.5249742269515991,-6.8776535987854,-6.861291885375977,-0.5200007614176383,-2.014760205561062,-2.016368592360342,-0.5309388617057574,-2.0192606851937263,-2.0185028791868698,-0.29036474602549545,-1.028142756526241,-1.0257727283462796,0.006904422013239454,0.026597239103413075,0.026591525532109167,-1.4518237301274772,-5.140713782631205,-5.128863641731399,-0.2816084137044099,-0.9945059921980591,-0.9921394773921686,-0.29907568421525443,-1.0617889472115634,-1.0594096612350865
-134.5820770263672,11.439806938171388,21.15235137939453,-1.6615207195281982,-6.90367317199707,-6.793993949890137,1.875947952270508,4.004388332366943,-6.961231708526611,0.7333333333333333,0.22893598110895574,0.07243744270403152,0.1537863954161578,-0.5180929615750637,-2.018237519127538,-2.016895136655883,-0.3033931255617133,-1.078607593204293,-1.0762171207072189,0.2703916764457517,0.11202283433146192,19.63313836735565,-3.1223487854003906,8.075752258300781,-10.559849739074707,-0.5228330845752813,-2.0184384241496085,-2.0178634395612014,0.0565632860552979,0.07692426545841974,0.04063471237943913,0.004037104121705311,0.0008134413078356506,0.0006448509877654491,-7.8307636976242065,-34.80403232574463,-34.31733179092407,-2.6141654228764066,-10.092192120748043,-10.089317197806007,-1.5249742269515991,-6.8776535987854,-6.793993949890137,-0.5180929615750637,-2.0171378062081935,-2.016895136655883,-0.5281535724423202,-2.0192606851937263,-2.0185028791868698,-0.29472168839695606,-1.0449630767274878,-1.04258825700929,0.0068708579673307174,0.026600303004885972,0.02658979151074195,-1.4736084419847804,-5.224815383637439,-5.212941285046449,-0.28600969347476257,-1.0113154739164607,-1.008952316126378,-0.3033931255617133,-1.078607593204293,-1.0762171207072189
-134.58799743652344,11.379883766174316,21.15960693359375,-1.6958216428756714,-6.626067638397217,-6.778903007507324,0.7605507373809814,3.401583433151245,-6.323233127593994,0.7416666666666667,0.20416444965161085,0.3954413755812407,0.21494157675835357,-0.5163915911613003,-2.0149421743310274,-2.0151039568495634,-0.3076963888213908,-1.0953987779903849,-1.0930096536809653,0.25721270601914326,-0.0894101347789411,19.436004198519413,33.31266403198242,1.8109130859375,-4.116110801696777,-0.5204806883190773,-2.0179992977741756,-2.017376101310088,0.07429368750164654,0.14821528537759143,0.050775705027570305,0.0035605211797570258,0.0017474798240302368,0.0014130099824851566,-8.001611113548279,-34.369163036346436,-34.20354986190796,-2.6024034415953867,-10.089996488870877,-10.08688050655044,-1.5299948453903198,-6.626067638397217,-6.778903007507324,-0.5163915911613003,-2.0149421743310274,-2.0151039568495634,-0.5253480865816228,-2.0192606851937263,-2.0185028791868698,-0.29905902746628177,-1.0617797375422726,-1.0593997245202071,0.006841348576796367,0.026589014940201244,0.026579510784763793,-1.4952951373314087,-5.3088986877113635,-5.296998622601036,-0.2903875941962761,-1.0281380984642539,-1.025770664825604,-0.3076963888213908,-1.0953987779903849,-1.0930096536809653
-134.59947204589844,11.326963424682615,21.16261482238769,-1.742620587348938,-6.520974159240723,-6.7932329177856445,0.3351238369941711,3.1512811183929443,-5.394614219665527,0.75,0.1674476240370606,0.5421327803281057,0.2460926605158651,-0.5149961942943247,-2.0104244011616266,-2.013053184678598,-0.3119880237738435,-1.1121523146667318,-1.1097850968866203,0.22391471258851728,-0.19032217814264854,19.381911180230286,12.611217498779297,-1.7195892333984375,-5.615873336791992,-0.5184103098616177,-2.0163411888594647,-2.016346369464386,0.0841711817667963,0.18875164874885597,0.0483230059409112,0.002986009810840311,0.0037193757461127922,0.0022743354984715767,-8.214236855506897,-33.87279462814331,-34.115246295928955,-2.5920515493080885,-10.081705944297324,-10.081731847321931,-1.5407519340515137,-6.520974159240723,-6.778903007507324,-0.5149961942943247,-2.0104244011616266,-2.013053184678598,-0.5225700408597616,-2.0192606851937263,-2.0185028791868698,-0.30337911338179524,-1.0785825807827683,-1.0762026109324103,0.006816628205620265,0.02656059959527264,0.0265611027062199,-1.516895566908976,-5.3929129039138415,-5.381013054662052,-0.2947423445367741,-1.0449652708408683,-1.0425915221521613,-0.3119880237738435,-1.1121523146667318,-1.1097850968866203
-134.61593627929688,11.280498504638672,21.165769577026367,-1.7864127159118652,-6.547117233276367,-6.723174095153809,-0.407753050327301,2.6131515502929688,-4.833893299102783,0.7583333333333333,0.13436549750889126,0.5563806627236865,0.36058927355659254,-0.5138764818150839,-2.005787895638929,-2.0100482740656265,-0.3162703277889692,-1.1288672137970561,-1.1265354991705006,0.14545666203739252,-0.1446237679771561,19.360654987841844,-3.1371688842773438,8.407058715820312,-5.2550554275512695,-0.5166715980526821,-2.013646630948505,-2.0146554484401373,0.08132778949316567,0.18290213167283473,0.049238476077362245,0.002439347216351684,0.005519971717282519,0.0032175227177096634,-8.459897637367249,-33.47548580169678,-33.95059585571289,-2.5833579902634107,-10.068233154742526,-10.073277242200687,-1.5735219717025757,-6.520974159240723,-6.723174095153809,-0.5138764818150839,-2.005787895638929,-2.0100482740656265,-0.5200007614176383,-2.018841164483405,-2.0181766899510176,-0.30768471003223424,-1.095362969374006,-1.0929914063360784,0.006796405310947044,0.02651591685539464,0.026534622673710193,-1.5384235501611712,-5.476814846870029,-5.464957031680392,-0.29907568421525443,-1.0617889472115634,-1.0594096612350865,-0.3162703277889692,-1.1288672137970561,-1.1265354991705006
-134.62765502929688,11.242860794067385,21.17504501342773,-1.903161883354187,-6.929527759552002,-6.482661724090576,0.157284215092659,1.3400216102600098,-4.602237701416016,0.7666666666666666,0.02953876701859115,0.2172759864912539,0.642353996317576,-0.5136303254232624,-2.0039772624181684,-2.0046953240963132,-0.3205505805008297,-1.1455670243172076,-1.1432412935379699,-0.10794001158112802,0.23094691276023593,19.484724576494642,-45.88926315307617,28.86148452758789,-14.009900093078613,-0.515397510853807,-2.0106738505354578,-2.0119591752691965,0.0939283477188469,0.19679013313674798,0.13274983690674336,0.0018608585996718059,0.006004305606140657,0.004792319372201891,-8.78953754901886,-33.52735996246338,-33.57196569442749,-2.576987554269035,-10.053369252677289,-10.059795876345984,-1.6615207195281982,-6.520974159240723,-6.482661724090576,-0.5136303254232624,-2.0039772624181684,-2.0046953240963132,-0.5180929615750637,-2.018237519127538,-2.016895136655883,-0.31197968928934927,-1.1121185847951347,-1.109757732796655,0.006781326638363029,0.026466272473663795,0.02649581970144741,-1.5598984464467465,-5.5605929239756735,-5.548788663983275,-0.3033931255617133,-1.078607593204293,-1.0762171207072189,-0.3205505805008297,-1.1455670243172076,-1.1432412935379699
-134.61708068847656,11.214296340942385,21.19234848022461,-1.7928084135055542,-6.57490873336792,-6.764958381652832,2.508952617645264,-0.0801469385623931,-4.474166393280029,0.775,0.15171617212153277,0.6148778740830272,0.4011226386065925,-0.5123660239889163,-1.9988532801341432,-2.0013526354412585,-0.324820297367404,-1.1622241349849922,-1.159919232166647,0.14192257933274985,-0.1567159963585019,19.410184729634626,42.554283142089844,-33.8755989074707,13.242416381835938,-0.5142521233365775,-2.006797002736779,-2.0088506750262716,0.07708843305315904,0.16662178118033727,0.12897869844863766,0.001517899379903132,0.006155765610766837,0.0057377348180747325,-8.920825242996216,-33.19859552383423,-33.542930126190186,-2.571260616682888,-10.033985013683894,-10.044253375131358,-1.6958216428756714,-6.520974159240723,-6.482661724090576,-0.5123660239889163,-1.9988532801341432,-2.0013526354412585,-0.5163915911613003,-2.0149421743310274,-2.0151039568495634,-0.3162651236504874,-1.1288418931512747,-1.1264981550885405,0.006768917283288789,0.026415377648043904,0.02644857516845131,-1.5813256182524371,-5.644209465756373,-5.632490775442703,-0.3076963888213908,-1.0953987779903849,-1.0930096536809653,-0.324820297367404,-1.1622241349849922,-1.159919232166647
-134.61163330078125,11.184659957885742,21.21402740478516,-1.6374306678771973,-6.377389907836914,-6.7245917320251465,1.9247946739196775,-0.3746082186698913,-4.944982528686523,0.7833333333333333,0.3165241594706012,0.8501657950014225,0.48405655792934965,-0.5097283226599946,-1.991768565175798,-1.9973188307918472,-0.3290680333895706,-1.1788222063614573,-1.176563555756579,0.28901550143195726,-0.2185273798309287,19.214314489387416,23.702259063720703,4.843997955322266,18.645329475402832,-0.5129194696363164,-2.002162280905733,-2.0052936498147287,0.09593621057915751,0.2045197998650558,0.12375760616969557,0.00201393238928009,0.007135837091532218,0.00636993248547319,-8.862434267997742,-32.949917793273926,-33.48861885070801,-2.5645973481815822,-10.010811404528665,-10.026468249073643,-1.6374306678771973,-6.377389907836914,-6.482661724090576,-0.5097283226599946,-1.991768565175798,-1.9973188307918472,-0.5149961942943247,-2.0104244011616266,-2.013053184678598,-0.32053945256412336,-1.145526578825489,-1.1432089355036634,0.006753051304003989,0.026357090041590096,0.026395654097212333,-1.6026972628206169,-5.727632894127445,-5.716044677518317,-0.3119880237738435,-1.1121523146667318,-1.1097850968866203,-0.3290680333895706,-1.1788222063614573,-1.176563555756579
-134.6139678955078,11.16258716583252,21.22523498535156,-1.8732935190200808,-6.330461502075195,-6.776881694793701,1.1044089794158936,-0.1166856437921524,-3.415517568588257,0.7916666666666666,0.09063858002526648,0.9322883241719477,0.47388170256311213,-0.508973001159784,-1.9839994958076983,-1.9933698166038214,-0.33330947506590214,-1.1953555354931882,-1.1931749708949442,0.09585030209661266,-0.3683935110860122,19.263316660488343,5.63140869140625,-6.2747955322265625,-28.303542137146025,-0.5117148310094083,-1.996877299834947,-2.001356976199774,0.10328350899381544,0.23592571939231544,0.12078316065607342,0.002248874813003622,0.009022883280711203,0.0064572552385370125,-8.993107199668884,-32.7594051361084,-33.472267627716064,-2.5585741550470416,-9.984386499174736,-10.006784880998868,-1.6374306678771973,-6.330461502075195,-6.482661724090576,-0.508973001159784,-1.9839994958076983,-1.9933698166038214,-0.5138764818150839,-2.005787895638929,-2.0100482740656265,-0.3248037428225351,-1.1621672229907802,-1.1598869103053282,0.006734992408288681,0.026283611838538123,0.026341980317919143,-1.6240187141126756,-5.810836114953901,-5.799434551526641,-0.3162703277889692,-1.1288672137970561,-1.1265354991705006,-0.33330947506590214,-1.1953555354931882,-1.1931749708949442
