Euler_X,Euler_Y,Euler_Z,Acc_X,Acc_Y,Acc_Z,Gyr_X,Gyr_Y,Gyr_Z,time_seconds,filtered_accel_x,filtered_accel_y,filtered_accel_z,Vel_X,Vel_Y,Vel_Z,Displacement_X,Displacement_Y,Displacement_Z,Acc_Global_X,Acc_Global_Y,Acc_Global_Z,Dy_dt,Dz_dt,Dx_dt,Vel_X_Roll_Mean,Vel_Y_Roll_Mean,Vel_Z_Roll_Mean,Acc_Global_X_Roll_Std,Acc_Global_Y_Roll_Std,Acc_Global_Z_Roll_Std,Vel_X_Roll_Std,Vel_Y_Roll_Std,Vel_Z_Roll_Std,Acc_Global_X_Roll_Sum,Acc_Global_Y_Roll_Sum,Acc_Global_Z_Roll_Sum,Vel_X_Roll_Sum,Vel_Y_Roll_Sum,Vel_Z_Roll_Sum,Acc_Global_X_Roll_Max,Acc_Global_Y_Roll_Max,Acc_Global_Z_Roll_Max,Vel_X_Roll_Max,Vel_Y_Roll_Max,Vel_Z_Roll_Max,Vel_X_Roll_Min,Vel_Y_Roll_Min,Vel_Z_Roll_Min,Displacement_X_Roll_Mean,Displacement_Y_Roll_Mean,Displacement_Z_Roll_Mean,Displacement_X_Roll_Std,Displacement_Y_Roll_Std,Displacement_Z_Roll_Std,Displacement_X_Roll_Sum,Displacement_Y_Roll_Sum,Displacement_Z_Roll_Sum,Displacement_X_Roll_Max,Displacement_Y_Roll_Max,Displacement_Z_Roll_Max,Displacement_X_Roll_Min,Displacement_Y_Roll_Min,Displacement_Z_Roll_Min
-135.41258239746094,19.4591007232666,19.954486846923828,-3.5608434677124023,-7.121022701263428,-7.0559563636779785,-1.3562994003295898,2.261775255203247,-3.514426946640014,0.0,-3.530803367160457,-7.0609481037928274,-6.996430680907318,0.0,0.0,0.0,0.0,0.0,0.0,-0.057346616008634034,0.10492186378580111,20.447706213640185,,,,,,,,,,,,,,,,,,,,,,,,,,,,,,,,,,,,,,,,,,
-135.42164611816406,19.42151641845703,19.955904006958008,-3.467106342315674,-6.8352952003479,-7.22214412689209,0.5822628736495972,2.0732674598693848,-3.935922145843506,0.008333333333333333,-3.3780310741046704,-6.657990314582849,-7.04266887759169,-0.028150258950872253,-0.055483252621523746,-0.05868890731326408,-0.00023458549125726877,-0.00046236043851269787,-0.000489074227610534,0.10222810714483418,-0.17606813610608682,20.33900764934589,34.28730010986328,-19.94253158569336,11.248455047607422,,,,,,,,,,,,,,,,,,,,,,,,,,,,,,,,,,,,,,,
-135.45079040527344,19.379636764526367,19.95023536682129,-3.3826866149902344,-6.823862075805664,-7.249397754669189,-1.6248517036437988,2.994842052459717,-3.673683404922485,0.016666666666666666,-3.236579617687628,-6.532827639874973,-6.94935784439488,-0.05512175576493582,-0.10992348295381518,-0.11660022268322141,-0.0006939334559650672,-0.0013783894631278243,-0.0014607427499707124,0.18099974845731512,-0.17110647690833325,20.321869093309427,1.3719749450683594,-3.2704353332518465,10.130367279052734,,,,,,,,,,,,,,,,,,,,,,,,,,,,,,,,,,,,,,,
-135.49542236328125,19.33293914794922,19.938213348388672,-3.408855438232422,-7.335585117340088,-7.213013648986816,-3.152677297592163,3.923460960388184,-3.6158082485198975,0.025,-3.2066932514926862,-6.927567963519865,-6.7935114069257665,-0.08184419952737487,-0.1676532159831474,-0.17321281774093614,-0.0013759684520265245,-0.002775499596320719,-0.002904182897811847,0.11751253421442102,0.22944472933130938,20.64476885925412,-61.40676498413086,4.366092681884659,-3.1402587890625,,,,,,,,,,,,,,,,,,,,,,,,,,,,,,,,,,,,,,,
-135.52734375,19.27821350097656,19.92643165588379,-3.481050729751587,-7.585451602935791,-7.172853946685791,-1.7192529439926147,4.582271099090576,-4.253217697143555,0.03333333333333333,-3.222481944558444,-7.0550248174002625,-6.635554378159983,-0.10869821573202858,-0.2264450894614829,-0.22850910422560267,-0.002281786916460096,-0.004662542008499743,-0.004808425433025202,0.01686161995058818,0.4185932714896078,20.806868613514823,-29.983978271484375,4.819164276123047,-8.663434982299805,-0.05476288599504231,-0.11190100820399385,-0.11540221039260486,0.06938318442367146,0.3278066169728021,0.07596748885765102,0.04286534650706725,0.08935514060690758,0.09037524536294306,-17.30054259300232,-35.70121669769287,-35.913365840911865,-0.27381442997521155,-0.5595050410199692,-0.5770110519630243,-3.3826866149902344,-6.823862075805664,-7.0559563636779785,0.0,0.0,0.0,-0.10869821573202858,-0.2264450894614829,-0.22850910422560267,-0.0009172548631417912,-0.0018557583012921968,-0.0019324850616836593,0.0009259633209974421,0.001893227159725574,0.001952927537215525,-0.004586274315708956,-0.009278791506460984,-0.009662425308418297,0.0,0.0,0.0,-0.002281786916460096,-0.004662542008499743,-0.004808425433025202
-135.54061889648438,19.21756935119629,19.91601181030273,-3.4466986656188965,-7.415100574493408,-7.276591777801514,0.5489898324012756,4.995185852050781,-4.910850524902344,0.041666666666666664,-3.1318869455305394,-6.762640502547745,-6.62196695625231,-0.13479727361144975,-0.2828004269827141,-0.28369216219437193,-0.003405097529888844,-0.0070192122333556945,-0.007172526784644969,0.0877988563626616,0.24023272577026,20.752888819708012,20.442123413085938,-12.448539733886719,4.122247695922852,-0.08172234071733225,-0.16846109360053668,-0.17214064283147926,0.040873561560274246,0.3491809774641341,0.039088991254713046,0.0421966238243509,0.09031462231144236,0.0888514617683456,-17.186397790908813,-35.99529457092285,-36.1340012550354,-0.40861170358666127,-0.8423054680026834,-0.8607032141573963,-3.3826866149902344,-6.823862075805664,-7.172853946685791,-0.028150258950872253,-0.055483252621523746,-0.05868890731326408,-0.13479727361144975,-0.2828004269827141,-0.28369216219437193,-0.0015982743691195602,-0.003259600747963336,-0.003366990418612653,0.0012706985382309652,0.0026315768026812032,0.002678162360272138,-0.0079913718455978,-0.01629800373981668,-0.016834952093063266,-0.00023458549125726877,-0.00046236043851269787,-0.000489074227610534,-0.003405097529888844,-0.0070192122333556945,-0.007172526784644969
-135.54534912109375,19.142120361328125,19.903928756713867,-3.354478597640991,-7.400723934173584,-7.327138423919678,1.5534520149230957,6.384731769561768,-5.969768524169922,0.05,-2.9849748068302207,-6.628836293561645,-6.554894423099107,-0.15967206366836825,-0.33804072942906116,-0.3383162823868645,-0.004735698060458579,-0.009836218311931204,-0.00999182913786884,0.17948562329502482,0.2257420338477558,20.747413969506045,1.7251968383789062,-6.0655975341796875,11.066408157348633,-0.10802670166083146,-0.22497258896204414,-0.22806611784619935,0.05027910196863227,0.288145896321209,0.05906163289150749,0.0414391559663583,0.09034992917612243,0.08758293518848721,-17.07377004623413,-36.560723304748535,-36.23899555206299,-0.5401335083041573,-1.1248629448102208,-1.1403305892309967,-3.354478597640991,-6.823862075805664,-7.172853946685791,-0.05512175576493582,-0.10992348295381518,-0.11660022268322141,-0.15967206366836825,-0.33804072942906116,-0.3383162823868645,-0.002498496882959822,-0.0051343723226470375,-0.005267541400664314,0.0016117130864002195,0.0033746958685674337,0.0033998467167193677,-0.01249248441479911,-0.025671861613235186,-0.02633770700332157,-0.0006939334559650672,-0.0013783894631278243,-0.0014607427499707124,-0.004735698060458579,-0.009836218311931204,-0.00999182913786884
-135.5507049560547,19.051881790161133,19.88894844055176,-3.258277416229248,-7.400148391723633,-7.30402135848999,1.6668336391448977,7.89201545715332,-7.023295879364014,0.058333333333333334,-2.8361426017423983,-6.509987912265703,-6.4149401195564275,-0.1833065853495549,-0.392290628697942,-0.3917741167165014,-0.006263252938371537,-0.013105306884414053,-0.013256613443839686,0.2379614807056645,0.26464235763439203,20.70039185255349,0.06906509399414062,2.7740478515625,11.54414176940918,-0.13366366757775527,-0.2814460181108695,-0.2831008966528553,0.08728262859784795,0.0935625731253296,0.064254851598512,0.04015803801740442,0.08869220292274169,0.08647920394966366,-16.949360847473145,-37.137009620666504,-36.29361915588379,-0.6683183378887764,-1.4072300905543476,-1.4155044832642767,-3.258277416229248,-7.335585117340088,-7.172853946685791,-0.08184419952737487,-0.1676532159831474,-0.17321281774093614,-0.1833065853495549,-0.392290628697942,-0.3917741167165014,-0.0036123607794411165,-0.007479755806904282,-0.007626715539438109,0.0019431901210885518,0.004107266759267681,0.0041152422118138484,-0.018061803897205582,-0.037398779034521414,-0.03813357769719054,-0.0013759684520265245,-0.002775499596320719,-0.002904182897811847,-0.006263252938371537,-0.013105306884414053,-0.013256613443839686
-135.5660400390625,18.94614601135254,19.865476608276367,-3.291628837585449,-7.588279724121094,-7.171119689941406,0.7228721976280212,9.88710880279541,-7.587577819824219,0.06666666666666667,-2.817848745306612,-6.579286218039643,-6.1675273588555894,-0.20678865822711,-0.4471180138482724,-0.443170178040298,-0.007986491756930787,-0.016831290333149656,-0.01694969826084217,0.12251438523462359,0.4675177846122589,20.746552680341214,-22.575759887695312,15.948200225830078,-4.002170562744141,-0.1586525593177023,-0.33733897768389454,-0.33709236871272774,0.09619771516594933,0.09961958645178577,0.07373735122146931,0.03869901648013503,0.08709695910812737,0.08497941007098474,-16.832134246826172,-37.38970422744751,-36.25172519683838,-0.7932627965885115,-1.6866948884194726,-1.6854618435636386,-3.258277416229248,-7.400148391723633,-7.171119689941406,-0.10869821573202858,-0.2264450894614829,-0.22850910422560267,-0.20678865822711,-0.4471180138482724,-0.443170178040298,-0.004934465440421969,-0.01029091395427007,-0.010435818612044174,0.002263609886882233,0.00482925154088035,0.004819265134782666,-0.024672327202109844,-0.05145456977135035,-0.052179093060220866,-0.002281786916460096,-0.004662542008499743,-0.004808425433025202,-0.007986491756930787,-0.016831290333149656,-0.01694969826084217
-135.5647735595703,18.83036994934082,19.849557876586918,-3.3458921909332275,-7.875923156738281,-7.227951526641846,2.4917147159576416,10.157570838928224,-9.087215423583984,0.075,-2.8201763065667613,-6.745112923311982,-6.111483283237711,-0.2302901274484997,-0.5033272882092056,-0.49409920540061225,-0.009905576152334951,-0.0210256844015597,-0.021067191639180603,0.0708574827065803,0.6246053145560663,20.99361707203225,-34.5172119140625,-6.819820404052734,-6.511602401733398,-0.18297094166099653,-0.392715417433439,-0.39021038894772964,0.0718426644334479,0.20594468942282673,0.06252647272235974,0.03764983941454772,0.08698481984349188,0.08312520919624064,-16.696975708007812,-37.68017578125,-36.306822776794434,-0.9148547083049826,-1.9635770871671951,-1.951051944738648,-3.258277416229248,-7.400148391723633,-7.171119689941406,-0.13479727361144975,-0.2828004269827141,-0.28369216219437193,-0.2302901274484997,-0.5033272882092056,-0.49409920540061225,-0.006459223287596939,-0.013563542432882061,-0.013687571853275255,0.002576165987274655,0.005551867293562996,0.005508863505726424,-0.0322961164379847,-0.06781771216441031,-0.06843785926637627,-0.003405097529888844,-0.0070192122333556945,-0.007172526784644969,-0.009905576152334951,-0.0210256844015597,-0.021067191639180603
-135.53280639648438,18.70524406433105,19.84881591796875,-3.1047515869140625,-7.796449184417725,-7.228695869445801,5.509379863739014,9.742106437683104,-11.061637878417969,0.08333333333333333,-2.529128942637607,-6.543124598929591,-5.9998487104535565,-0.25136620197047976,-0.5578533265336189,-0.5440979446543919,-0.012000294502088948,-0.025674462122673193,-0.025601341177967203,0.26764548573921665,0.628453431881835,20.86493367019972,9.536876678466797,-0.08932113647460938,28.936872482299805,-0.2062847273328025,-0.44772599734362,-0.44229154543973365,0.10099933699594428,0.22008964136773637,0.06327481784431864,0.03643345975701607,0.08706870838415955,0.08125917560288717,-16.35502862930298,-38.061524391174316,-36.25892686843872,-1.0314236366640126,-2.2386299867181,-2.211457727198668,-3.1047515869140625,-7.400148391723633,-7.171119689941406,-0.15967206366836825,-0.33804072942906116,-0.3383162823868645,-0.25136620197047976,-0.5578533265336189,-0.5440979446543919,-0.00817826268203696,-0.017294592410745564,-0.0173733347319397,0.0028786641275926725,0.00627565474805019,0.006183812654541708,-0.0408913134101848,-0.08647296205372781,-0.0868666736596985,-0.004735698060458579,-0.009836218311931204,-0.00999182913786884,-0.012000294502088948,-0.025674462122673193,-0.025601341177967203
-135.47775268554688,18.56838035583496,19.86150550842285,-2.9288201332092285,-7.698568820953369,-7.330655097961426,7.838099002838135,9.67371940612793,-13.188645362854004,0.09166666666666666,-2.3072459823310028,-6.325293855322608,-5.989544188742329,-0.2705932518232381,-0.6105641086613073,-0.5940108128939112,-0.014255238267282599,-0.03076249636151742,-0.030551431285416465,0.45234708925372114,0.5342192360368624,20.8142921329637,11.745643615722656,-12.235107421875,21.111774444580078,-0.2284689649637765,-0.5022306731900692,-0.493430451541143,0.16932933747648474,0.1862058387623909,0.06433251145691013,0.03468332405987822,0.0865381909522231,0.07991269717998292,-15.929370164871216,-38.3593692779541,-36.26244354248047,-1.1423448248188826,-2.511153365950346,-2.467152257705715,-2.9288201332092285,-7.400148391723633,-7.171119689941406,-0.1833065853495549,-0.392290628697942,-0.3917741167165014,-0.2705932518232381,-0.6105641086613073,-0.5940108128939112,-0.010082170723401765,-0.021479848020662804,-0.021485255161449227,0.0031662628040805526,0.006994830950325605,0.006848253639254472,-0.050410853617008825,-0.10739924010331402,-0.10742627580724613,-0.006263252938371537,-0.013105306884414053,-0.013256613443839686,-0.014255238267282599,-0.03076249636151742,-0.030551431285416465
-135.4066619873047,18.423383712768555,19.8753719329834,-2.8473799228668213,-7.335887908935547,-7.38042688369751,9.651267051696776,10.253560066223145,-13.938514709472656,0.1,-2.1824301354140663,-5.847597377139435,-5.926755874298764,-0.28878016961835534,-0.6592940868041359,-0.6434004451797343,-0.016661739680768894,-0.03625661375155188,-0.03591310166191425,0.5378388275740456,0.23948069681859635,20.582506821284536,43.52170944213867,-5.972614288330078,9.772825241088867,-0.24956368181753658,-0.555631364811308,-0.5437557172337896,0.21809307690825508,0.21030715885532328,0.0852931561197047,0.03234423190514809,0.08408235123700603,0.07911697578446863,-15.518472671508789,-38.295108795166016,-36.33884906768799,-1.247818409087683,-2.77815682405654,-2.718778586168948,-2.8473799228668213,-7.335887908935547,-7.171119689941406,-0.20678865822711,-0.4471180138482724,-0.443170178040298,-0.28878016961835534,-0.6592940868041359,-0.6434004451797343,-0.012161868071881235,-0.026110109394090374,-0.026016552805064142,0.003434449369534456,0.007693079753683024,0.007506384450574308,-0.060809340359406175,-0.13055054697045188,-0.1300827640253207,-0.007986491756930787,-0.016831290333149656,-0.01694969826084217,-0.016661739680768894,-0.03625661375155188,-0.03591310166191425
-135.3380889892578,18.26942443847656,19.890953063964844,-2.832520008087158,-7.320279598236084,-7.345629692077637,9.35395050048828,10.87185001373291,-14.88576889038086,0.10833333333333334,-2.1253910698397664,-5.721175754837316,-5.7802615123666525,-0.30649176186702004,-0.7069705514277802,-0.6915692911161231,-0.019215837696327395,-0.042148035013450054,-0.04167617908788194,0.5129960041227103,0.23162321713370412,20.54550764289872,1.8729972839355469,4.175662994384766,1.7831897735595703,-0.2695043025455186,-0.6076018723272096,-0.5934355398489546,0.2158231328157203,0.2609087037482229,0.07023150299088433,0.030031480274907867,0.0804722016745216,0.0781488347366296,-15.059363842010498,-38.027108669281006,-36.51335906982422,-1.347521512727593,-3.038009361636048,-2.9671776992447727,-2.832520008087158,-7.320279598236084,-7.227951526641846,-0.2302901274484997,-0.5033272882092056,-0.49409920540061225,-0.30649176186702004,-0.7069705514277802,-0.6915692911161231,-0.014407737259760555,-0.03117345833015045,-0.030961848970472095,0.0036839804537149006,0.008361593256536758,0.008156584813093368,-0.07203868629880278,-0.15586729165075225,-0.15480924485236047,-0.009905576152334951,-0.0210256844015597,-0.021067191639180603,-0.019215837696327395,-0.042148035013450054,-0.04167617908788194
-135.26136779785156,18.106285095214844,19.904882431030277,-2.822240829467773,-7.235173225402832,-7.296207904815674,10.33254337310791,11.76235580444336,-15.503098487854004,0.11666666666666667,-2.0735199518172087,-5.527084213498273,-5.620838071751163,-0.3237710947988301,-0.7530295865402659,-0.7384096083807161,-0.02191393015298431,-0.04842328156795227,-0.047829592491054576,0.4790999095303241,0.17742906726124266,20.45360873454932,10.212764739990234,5.930614471435547,1.2335014343262252,-0.2882004960155847,-0.6575423319934216,-0.6422976204449753,0.11818168914494259,0.25203881154286034,0.05756893737296607,0.028578637964318893,0.07698844812578767,0.0768785081913844,-14.535712480545044,-37.38635873794556,-36.58161544799805,-1.4410024800779233,-3.287711659967108,-3.2114881022248762,-2.822240829467773,-7.235173225402832,-7.228695869445801,-0.25136620197047976,-0.5578533265336189,-0.5440979446543919,-0.3237710947988301,-0.7530295865402659,-0.7384096083807161,-0.01680940805989043,-0.03665297776342896,-0.03631432914084688,0.003921741063784632,0.009001644114858699,0.008796175463716268,-0.08404704029945215,-0.1832648888171448,-0.18157164570423442,-0.012000294502088948,-0.025674462122673193,-0.025601341177967203,-0.02191393015298431,-0.04842328156795227,-0.047829592491054576
-135.18482971191406,17.935222625732422,19.914779663085938,-2.8203158378601074,-7.334206104278564,-7.240741729736328,10.530285835266112,12.742460250854492,-15.899889945983888,0.125,-2.0304772905380224,-5.5179804772655725,-5.457228825189891,-0.34069173888664694,-0.7990127571841457,-0.7838865152572986,-0.024753027977039703,-0.055081721211153484,-0.05436198011819873,0.42715747403522264,0.26040653226000726,20.48346365208589,-11.883945465087784,6.655941009521484,0.23099899291986858,-0.3060656033988181,-0.7057742181235269,-0.6902553345655568,0.04521178867978473,0.18024570673376641,0.053060630174077694,0.027702478421874684,0.07441991295179462,0.0750762065793375,-14.251276731491089,-36.9241156578064,-36.593661308288574,-1.5303280169940905,-3.528871090617635,-3.4512766728277837,-2.8203158378601074,-7.235173225402832,-7.240741729736328,-0.2705932518232381,-0.6105641086613073,-0.5940108128939112,-0.34069173888664694,-0.7990127571841457,-0.7838865152572986,-0.01935995475488058,-0.04253442958112502,-0.042066456928893194,0.004152327475199096,0.009620963946645496,0.009420795287704852,-0.09679977377440291,-0.2126721479056251,-0.21033228464446596,-0.014255238267282599,-0.03076249636151742,-0.030551431285416465,-0.024753027977039703,-0.055081721211153484,-0.05436198011819873
-135.089111328125,17.763925552368164,19.932090759277344,-2.738187789916992,-7.43821382522583,-7.127086639404297,12.496334075927734,12.139297485351562,-16.507204055786133,0.13333333333333333,-1.9083090963948783,-5.513100516612308,-5.23781840207516,-0.3565943146899376,-0.8449552614892483,-0.8275350019412583,-0.027724647266122518,-0.06212301505689722,-0.061258105134375886,0.42202715428780335,0.40409619555843546,20.453244833883385,-12.480926513671982,13.63861083984375,9.855365753173828,-0.323265815972158,-0.7526524486891152,-0.7369601723750261,0.04270537651037309,0.07213065052671157,0.09944796244442429,0.026857660073324956,0.0732663789858134,0.07283841178648233,-14.060644388198853,-36.66376066207886,-36.390092849731445,-1.6163290798607899,-3.763262243445576,-3.6848008618751305,-2.738187789916992,-7.235173225402832,-7.127086639404297,-0.28878016961835534,-0.6592940868041359,-0.6434004451797343,-0.3565943146899376,-0.8449552614892483,-0.8275350019412583,-0.022053836554648563,-0.04880653332020098,-0.048207791698685075,0.0043758498739798965,0.010230953422050769,0.010026827974379213,-0.11026918277324282,-0.24403266660100492,-0.24103895849342538,-0.016661739680768894,-0.03625661375155188,-0.03591310166191425,-0.027724647266122518,-0.06212301505689722,-0.061258105134375886
-134.98143005371094,17.587406158447266,19.96209526062012,-2.729241371154785,-7.642720699310303,-6.951272487640381,13.54037094116211,11.525245666503906,-18.032968521118164,0.14166666666666666,-1.8604512905341113,-5.607088144814036,-4.959634679757444,-0.3720980754443885,-0.8916809960293652,-0.868865290939237,-0.030825464561492422,-0.0695536900238086,-0.0684986492255362,0.31971552347114374,0.6327498865968518,20.471966840699626,-24.54082489013672,21.097698211669922,1.0735702514648438,-0.3399293971373646,-0.799129830534161,-0.7820531415269266,0.05032731811140526,0.1565668627935538,0.15732166839254028,0.02594364417797577,0.0729456429209683,0.07017904840872828,-13.942505836486816,-36.97059345245361,-35.960938453674316,-1.699646985686823,-3.995649152670805,-3.910265707634633,-2.729241371154785,-7.235173225402832,-6.951272487640381,-0.30649176186702004,-0.7069705514277802,-0.6915692911161231,-0.3720980754443885,-0.8916809960293652,-0.868865290939237,-0.02488658153079327,-0.05546594857465233,-0.05472490121140946,0.004591752856269019,0.0108385262391282,0.010610667167780486,-0.12443290765396635,-0.2773297428732616,-0.2736245060570473,-0.019215837696327395,-0.042148035013450054,-0.04167617908788194,-0.030825464561492422,-0.0695536900238086,-0.0684986492255362
-134.82366943359375,17.413930892944336,20.002605438232425,-2.681515693664551,-7.345540523529053,-7.000765323638916,19.11769676208496,10.374706268310549,-18.623611450195312,0.15,-1.7746442966798415,-5.201158450372926,-4.9087415814112205,-0.3868867779167205,-0.9350239831158063,-0.9097714707843305,-0.03404952104413176,-0.07734555654977365,-0.07608007814873895,0.3760099013178691,0.36309389719636675,20.29260399379713,35.66162109375,-5.939140319824219,5.727081298828125,-0.35600840034730474,-0.8447405168717662,-0.8256935774605682,0.06139855133115497,0.15397461965458578,0.14858685819080872,0.024932604802708584,0.07220886670650661,0.06764355391122859,-13.791501522064209,-36.99585437774658,-35.616074085235596,-1.7800420017365237,-4.223702584358831,-4.128467887302841,-2.681515693664551,-7.235173225402832,-6.951272487640381,-0.3237710947988301,-0.7530295865402659,-0.7384096083807161,-0.3868867779167205,-0.9350239831158063,-0.9097714707843305,-0.027853318200354145,-0.06250545288191704,-0.06160568102358086,0.004799251757529503,0.011439754403028355,0.011173560419930426,-0.13926659100177072,-0.3125272644095852,-0.3080284051179043,-0.02191393015298431,-0.04842328156795227,-0.047829592491054576,-0.03404952104413176,-0.07734555654977365,-0.07608007814873895
-134.65476989746094,17.24686050415039,20.050048828125,-2.602231502532959,-7.205526351928711,-7.079838752746582,20.283618927001957,9.211859703063965,-18.699365615844727,0.15833333333333333,-1.658696280608035,-4.95705898128863,-4.8872484234282,-0.40070924692178744,-0.9763328079598782,-0.9504985409795655,-0.037388764768479986,-0.08548166328277264,-0.08400089932356866,0.4692997713127838,0.201091637573104,20.22895654295334,16.801700592041016,-9.488811492919922,9.514102935791016,-0.37139603077189615,-0.8894011611556888,-0.868111363980338,0.08010522425303754,0.16221892525567244,0.11280954110041828,0.023777957723608575,0.07033713869007222,0.06569635860804432,-13.571492195129395,-36.96620750427246,-35.399704933166504,-1.8569801538594808,-4.447005805778444,-4.34055681990169,-2.602231502532959,-7.205526351928711,-6.951272487640381,-0.34069173888664694,-0.7990127571841457,-0.7838865152572986,-0.40070924692178744,-0.9763328079598782,-0.9504985409795655,-0.030948285123453278,-0.06991712922488111,-0.06883994239008369,0.004997138664514791,0.0120250352141968,0.01172056216319286,-0.1547414256172664,-0.34958564612440557,-0.34419971195041843,-0.024753027977039703,-0.055081721211153484,-0.05436198011819873,-0.037388764768479986,-0.08548166328277264,-0.08400089932356866
-134.4811248779297,17.086551666259766,20.1002197265625,-2.664750337600708,-7.3031134605407715,-6.945804119110107,20.70591163635254,8.36478328704834,-18.34756851196289,0.16666666666666666,-1.685027774327827,-4.9518581534485175,-4.654019094839814,-0.414751145041186,-1.0175982925719491,-0.989282033436564,-0.04084502431048987,-0.09396164905420555,-0.09224491626887336,0.3330929412597476,0.2937664310974398,20.225531950734204,-11.710453033447266,16.084156036376953,-7.502260208129883,-0.386207912002804,-0.9331182682332493,-0.909190467616191,0.0548693638007346,0.1656083134593605,0.08006583489106943,0.02292116030635709,0.06800324622969522,0.06406069066489287,-13.415926694869995,-36.93511486053467,-35.10476732254028,-1.93103956001402,-4.665591341166246,-4.545952338080955,-2.602231502532959,-7.205526351928711,-6.945804119110107,-0.3565943146899376,-0.8449552614892483,-0.8275350019412583,-0.414751145041186,-1.0175982925719491,-0.989282033436564,-0.03416668439014331,-0.07769311479349153,-0.07641652962021861,0.005187951078133762,0.012590926620820118,0.012254023320185057,-0.17083342195071655,-0.3884655739674577,-0.38208264810109305,-0.027724647266122518,-0.06212301505689722,-0.061258105134375886,-0.04084502431048987,-0.09396164905420555,-0.09224491626887336
-134.2986297607422,16.935733795166016,20.15285301208496,-2.846914052963257,-7.283642768859863,-6.827714443206787,21.759984970092773,7.304582595825195,-17.78845977783203,0.175,-1.8292719625718168,-4.829871809431275,-4.439761058800257,-0.4299950780626178,-1.0578472243172097,-1.0262800422598994,-0.04442831662767835,-0.1027770425901823,-0.10079724995437253,0.10387632475534454,0.2514028754899439,20.18786405917179,2.3364830017089844,14.170761108398438,-21.85964584350586,-0.40088806467734006,-0.9756966607988418,-0.9489394756799193,0.09146055222776128,0.1680721382580722,0.0919163720942963,0.022717475168697505,0.06560824100562629,0.06236490110481844,-13.52465295791626,-36.7805438041687,-34.80539512634277,-2.0044403233867003,-4.878483303994209,-4.7446973783995965,-2.602231502532959,-7.205526351928711,-6.827714443206787,-0.3720980754443885,-0.8916809960293652,-0.868865290939237,-0.4299950780626178,-1.0578472243172097,-1.0262800422598994,-0.037507418262454476,-0.08582392030014854,-0.08432435858421794,0.005377222456797685,0.013137267311452074,0.012773187216063698,-0.1875370913122724,-0.4291196015007427,-0.4216217929210897,-0.030825464561492422,-0.0695536900238086,-0.0684986492255362,-0.04442831662767835,-0.1027770425901823,-0.10079724995437253
-134.11636352539062,16.804279327392578,20.210494995117188,-2.635896682739258,-6.923789978027344,-6.808563709259033,21.513139724731445,5.217686176300049,-16.52897834777832,0.18333333333333332,-1.5809261399287018,-4.371635214981041,-4.326476200965592,-0.4431694625620236,-1.094277517775385,-1.0623340106012793,-0.04812139548236188,-0.11189602190497717,-0.10965003337604987,0.2900596338069691,0.034020205319592836,19.867736663852988,43.182334899902344,2.2980880737304688,25.322084426879883,-0.4151023421008671,-1.0162159651480456,-0.9876332196123278,0.09472611948540782,0.1690959970871475,0.11498486007701257,0.0224330081901986,0.06326824389321731,0.06024520717423866,-13.431308269500732,-36.06161308288574,-34.662686347961426,-2.0755117105043355,-5.081079825740228,-4.938166098061639,-2.602231502532959,-6.923789978027344,-6.808563709259033,-0.3868867779167205,-0.9350239831158063,-0.9097714707843305,-0.4431694625620236,-1.094277517775385,-1.0623340106012793,-0.04096660444662837,-0.09429238667638226,-0.09255463541432067,0.005564086791167358,0.013663918221639083,0.013274662802515791,-0.20483302223314184,-0.47146193338191134,-0.46277317707160337,-0.03404952104413176,-0.07734555654977365,-0.07608007814873895,-0.04812139548236188,-0.11189602190497717,-0.10965003337604987
-133.9462127685547,16.691600799560547,20.27028465270996,-2.501091480255127,-6.955260276794434,-6.92270565032959,20.05918312072754,3.4147636890411377,-15.120461463928224,0.19166666666666665,-1.412053612686687,-4.3083916309247945,-4.3465444967870575,-0.45493657600107934,-1.1301807813664249,-1.0985552147411715,-0.05191253361570421,-0.12131419508303072,-0.11880466016555963,0.4508737355100272,-0.0013370916326529549,19.92690015362798,-3.7764358520507812,-13.697032928466797,16.176624298095703,-0.4287123017177389,-1.0552473247981695,-1.025389968403696,0.12614182550143901,0.18182692768623213,0.10852304253777804,0.02166479027228744,0.06080725480977845,0.05837661480893782,-13.250884056091309,-35.67133283615112,-34.5846266746521,-2.1435615085886943,-5.276236623990847,-5.12694984201848,-2.501091480255127,-6.923789978027344,-6.808563709259033,-0.40070924692178744,-0.9763328079598782,-0.9504985409795655,-0.45493657600107934,-1.1301807813664249,-1.0985552147411715,-0.04453920696094286,-0.10308611438303368,-0.10109955181768479,0.005744260749423559,0.014169910797199883,0.013760827289114047,-0.22269603480471428,-0.5154305719151684,-0.505497759088424,-0.037388764768479986,-0.08548166328277264,-0.08400089932356866,-0.05191253361570421,-0.12131419508303072,-0.11880466016555963
-133.7738494873047,16.59893035888672,20.32107353210449,-2.4321048259735107,-6.677631855010986,-6.879411697387695,20.585542678833008,2.459287643432617,-12.66916561126709,0.2,-1.311035972550913,-3.9389972015114525,-4.209443105993712,-0.46586187577233695,-1.163005758045687,-1.133633907291119,-0.05579471591380701,-0.13100590973341145,-0.12825160939298563,0.5017556645664365,-0.18504857542674333,19.686548215623908,33.31541061401367,5.195274353027344,8.278398513793945,-0.4417428274878487,-1.092581914815331,-1.0620170416660066,0.16055766991299986,0.2645500472690969,0.05903662727451972,0.02015191873913209,0.05745674429385152,0.057078079311657294,-13.08075737953186,-35.1434383392334,-34.38419961929321,-2.2087141374392436,-5.462909574076655,-5.310085208330033,-2.4321048259735107,-6.677631855010986,-6.808563709259033,-0.414751145041186,-1.0175982925719491,-0.989282033436564,-0.46586187577233695,-1.163005758045687,-1.133633907291119,-0.048220397190008264,-0.11219096367316143,-0.1099496938315682,0.005911598281279166,0.014647972205122813,0.014236280376661678,-0.24110198595004131,-0.5609548183658072,-0.549748469157841,-0.04084502431048987,-0.09396164905420555,-0.09224491626887336,-0.05579471591380701,-0.13100590973341145,-0.12825160939298563
-133.62490844726562,16.53070831298828,20.36211395263672,-2.6430306434631348,-6.573751926422119,-6.82574987411499,18.17772483825684,1.1975041627883911,-9.804953575134276,0.20833333333333334,-1.4890341681285624,-3.7474186148496766,-4.063655991236431,-0.478270493840075,-1.1942342465027675,-1.1674977072180892,-0.0597803033624743,-0.14095786178760117,-0.13798075695313639,0.29119389998771184,-0.32446578516389496,19.6385611756387,12.465591430664062,6.439418792724609,-25.311098098754883,-0.45444669724762654,-1.1279091056014947,-1.0976601764223115,0.15920219277654488,0.2762291954517466,0.04720387178945022,0.01886251089426747,0.054027101412023645,0.05593579502099681,-13.059037685394287,-34.414076805114746,-34.264145374298096,-2.272233486238133,-5.639545528007473,-5.488300882111558,-2.4321048259735107,-6.573751926422119,-6.808563709259033,-0.4299950780626178,-1.0578472243172097,-1.0262800422598994,-0.478270493840075,-1.1942342465027675,-1.1674977072180892,-0.05200745300040514,-0.12159020621984055,-0.11909686196842081,0.006068655617306646,0.015097599745335054,0.014702165167189396,-0.26003726500202573,-0.6079510310992028,-0.5954843098421041,-0.04442831662767835,-0.1027770425901823,-0.10079724995437253,-0.0597803033624743,-0.14095786178760117,-0.13798075695313639
-133.49835205078125,16.488937377929688,20.392547607421875,-2.53609561920166,-6.680782794952393,-6.588657855987549,15.792845726013184,-0.1203485205769538,-6.65036678314209,0.21666666666666667,-1.34860348664458,-3.767541172633652,-3.7377440691775767,-0.4895088562287798,-1.2256304229413812,-1.1986455744612357,-0.06385954383104747,-0.15117144864544602,-0.1479694700736467,0.2794412786682389,-0.08897064934300976,19.525402661838772,-12.843704223632812,28.45104217529297,12.832202911376953,-0.466349452880859,-1.161465745326329,-1.132133282862579,0.09016228935034366,0.16783681876418508,0.12907255694605976,0.018345793947620457,0.05168718180888303,0.05402824350362911,-12.74821925163269,-33.811216831207275,-34.02508878707886,-2.331747264404295,-5.807328726631646,-5.660666414312895,-2.4321048259735107,-6.573751926422119,-6.588657855987549,-0.4431694625620236,-1.094277517775385,-1.0623340106012793,-0.4895088562287798,-1.2256304229413812,-1.1986455744612357,-0.05589369844107898,-0.13126908743089333,-0.12853130599227564,0.006221506143641685,0.015527887352109103,0.015151919607349039,-0.2794684922053949,-0.6563454371544666,-0.6426565299613782,-0.04812139548236188,-0.11189602190497717,-0.10965003337604987,-0.06385954383104747,-0.15117144864544602,-0.1479694700736467
-133.3744659423828,16.466480255126953,20.41739845275879,-2.6541755199432373,-6.966899394989014,-6.660906791687012,15.731127738952637,-1.2710555791854858,-4.545477867126465,0.225,-1.4334086671136892,-3.964245404162517,-3.7233908070543738,-0.5014539284547272,-1.2586658013094023,-1.2296738311866888,-0.0680383265681702,-0.16166033032302438,-0.15821675200020244,0.19495512861402026,0.011672647877714222,19.805592548980027,-34.33399200439453,-8.669872283935547,-14.169588088989258,-0.4780063460593997,-1.1943434020331325,-1.1656012469796608,0.09478587626765986,0.17894963599333855,0.14407791592902286,0.018451755224975636,0.05053501375878168,0.051763649003908306,-12.76649808883667,-33.854326248168945,-33.877431869506836,-2.3900317302969984,-5.971717010165663,-5.828006234898304,-2.4321048259735107,-6.573751926422119,-6.588657855987549,-0.45493657600107934,-1.1301807813664249,-1.0985552147411715,-0.5014539284547272,-1.2586658013094023,-1.2296738311866888,-0.05987708465824064,-0.14122194911450275,-0.13824464971710618,0.006375245584865146,0.015948948559943717,0.015582848653632395,-0.2993854232912032,-0.7061097455725138,-0.6912232485855309,-0.05191253361570421,-0.12131419508303072,-0.11880466016555963,-0.0680383265681702,-0.16166033032302438,-0.15821675200020244
-133.2589874267578,16.46270179748535,20.430683135986328,-2.6802053451538086,-6.767099380493164,-6.597540378570557,15.052733421325684,-1.8375911712646484,-1.982695460319519,0.23333333333333334,-1.4252620270591696,-3.675141015863498,-3.5741579583914413,-0.5133311120135536,-1.2892919764415982,-1.259458480839951,-0.07231608583494982,-0.17240443012670437,-0.16871223934053536,0.15920128646440665,-0.11919837813427969,19.631665869981997,23.976001739501953,7.603969573974609,-3.1235790252685547,-0.48968525326189455,-1.2261656410481672,-1.1977819001994168,0.1035621408388709,0.14749884748534772,0.1340508807733099,0.018678259524639994,0.05012550716484333,0.04963350464537261,-12.945611953735352,-33.666165351867676,-33.5522665977478,-2.4484262663094727,-6.130828205240836,-5.988909500997083,-2.4321048259735107,-6.573751926422119,-6.588657855987549,-0.46586187577233695,-1.163005758045687,-1.133633907291119,-0.5133311120135536,-1.2892919764415982,-1.259458480839951,-0.06395779510208977,-0.15143999612323747,-0.1482261655521013,0.006530863522568776,0.016366596078645098,0.01599615751144796,-0.3197889755104488,-0.7571999806161873,-0.7411308277605065,-0.05579471591380701,-0.13100590973341145,-0.12825160939298563,-0.07231608583494982,-0.17240443012670437,-0.16871223934053536
-133.1639404296875,16.4752254486084,20.44419479370117,-2.9461982250213623,-8.066320419311523,-5.8735432624816895,12.654932975769045,-3.210514545440674,-0.591330349445343,0.24166666666666667,-1.654937404381804,-4.876620408320508,-2.771743612099449,-0.5271222570500687,-1.329930479844269,-1.282556344274113,-0.07670877131036706,-0.1834871841254066,-0.17940020887615296,-0.44705765168219597,1.1502095975180373,20.14059905727712,-155.90652465820312,86.87965393066406,-31.919145584106445,-0.5019373295174409,-1.2595505854078837,-1.2275663875960157,0.15238987765503695,0.6073225747209895,0.3678980167981348,0.019228355300482773,0.053045886443055364,0.04607087491069831,-13.459705352783203,-35.05485391616821,-32.5463981628418,-2.509686647587204,-6.297752927039419,-6.137831937980078,-2.53609561920166,-6.573751926422119,-5.8735432624816895,-0.478270493840075,-1.1942342465027675,-1.1674977072180892,-0.5271222570500687,-1.329930479844269,-1.282556344274113,-0.06814060618140176,-0.1619362510016365,-0.15845588544873476,0.006691051920391142,0.01680829712302831,0.016379182352322313,-0.3407030309070088,-0.8096812550081826,-0.7922794272436738,-0.0597803033624743,-0.14095786178760117,-0.13798075695313639,-0.07670877131036706,-0.1834871841254066,-0.17940020887615296
-132.95794677734375,16.504404067993164,20.48805809020996,-2.407176733016968,-6.269582748413086,-6.761639595031738,24.873157501220703,-7.116215229034424,-1.4925041198730469,0.25,-1.082243325382564,-2.9872497905860707,-3.5807844462718714,-0.5361409514282567,-1.354824228099153,-1.312396214659712,-0.0811766125722692,-0.19477738602623287,-0.19033684399831724,0.5219114748640822,-0.5266955849035392,19.311165078532554,215.6085205078125,-106.57155990600586,64.68257904052729,-0.5135114210350772,-1.2916685817271607,-1.25654608908434,0.20028965517985328,0.673675543328593,0.35500208251118454,0.018834073237034454,0.052221831402173506,0.04438141436935596,-13.223851442337036,-34.75068473815918,-32.482287883758545,-2.567557105175386,-6.458342908635804,-6.2827304454217,-2.407176733016968,-6.269582748413086,-5.8735432624816895,-0.4895088562287798,-1.2256304229413812,-1.1986455744612357,-0.5361409514282567,-1.354824228099153,-1.312396214659712,-0.07241986802336074,-0.17270015584936285,-0.16892710285777093,0.0068476837880377265,0.01724249479148602,0.016748456041639555,-0.3620993401168037,-0.8635007792468142,-0.8446355142888546,-0.06385954383104747,-0.15117144864544602,-0.1479694700736467,-0.0811766125722692,-0.19477738602623287,-0.19033684399831724
-132.87413024902344,16.53339195251465,20.4920711517334,-2.1273269653320312,-6.749057769775391,-6.900705337524414,11.626891136169434,-3.752779960632324,1.615182399749756,0.2583333333333333,-0.7759493423844379,-3.3860755508162317,-3.6328829551340878,-0.542607195948127,-1.3830415243559548,-1.3426702392858294,-0.08569833920517025,-0.2063027320625325,-0.2015257626590325,0.8225580600471021,-0.18920488111891934,19.65797617296796,-57.53700256347656,-16.687889099121094,33.58197212219244,-0.5241310889789468,-1.3231508020100755,-1.2853510220492588,0.30942803296095445,0.6675147624735813,0.3998582713915616,0.016773815331581694,0.049851790236427926,0.04414498443888848,-12.815082788467407,-34.81895971298218,-32.79433536529541,-2.6206554448947337,-6.615754010050377,-6.426755110246294,-2.1273269653320312,-6.269582748413086,-5.8735432624816895,-0.5014539284547272,-1.2586658013094023,-1.2296738311866888,-0.542607195948127,-1.3830415243559548,-1.3426702392858294,-0.0767876270981853,-0.18372641253278013,-0.1796383613748481,0.006985970637890963,0.017656236282009255,0.017116060242801424,-0.38393813549092654,-0.9186320626639006,-0.8981918068742405,-0.0680383265681702,-0.16166033032302438,-0.15821675200020244,-0.08569833920517025,-0.2063027320625325,-0.2015257626590325
-132.8040771484375,16.568195343017578,20.46175575256348,-2.527927875518799,-6.760128498077393,-6.577828407287598,11.088146209716797,-1.3194788694381714,4.827950477600098,0.26666666666666666,-1.149347272988655,-3.313130705112137,-3.225412214124362,-0.5521850898896992,-1.410650946898556,-1.3695486744035323,-0.09029988162091775,-0.21805815662002045,-0.21293866827906194,0.3304011535545573,-0.12494886355630078,19.56872973646102,-1.3284873962402344,38.74523162841797,-48.07210922241211,-0.5342773212659411,-1.3535478311279063,-1.3133259906926273,0.305252516780002,0.673650898851124,0.3962680826246816,0.014861752358513013,0.04695441167583485,0.04436050983441086,-12.688835144042969,-34.61218881607056,-32.711256980895996,-2.671386606329705,-6.767739155639531,-6.566629953463137,-2.1273269653320312,-6.269582748413086,-5.8735432624816895,-0.5133311120135536,-1.2892919764415982,-1.259458480839951,-0.5521850898896992,-1.410650946898556,-1.3695486744035323,-0.08123993810873482,-0.19500597779217935,-0.19058274463062,0.007108631001521618,0.018045667238726512,0.01748546210720249,-0.4061996905436741,-0.9750298889608967,-0.9529137231531,-0.07231608583494982,-0.17240443012670437,-0.16871223934053536,-0.09029988162091775,-0.21805815662002045,-0.21293866827906194
-132.74868774414062,16.604515075683594,20.412065505981445,-2.465397834777832,-7.045304298400879,-6.6262054443359375,10.05833911895752,0.1829496920108795,6.461895942687988,0.275,-1.0570292669049373,-3.5125944510252154,-3.1923162077443683,-0.560993667113907,-1.4399225673237661,-1.3961513094680686,-0.09497482884686698,-0.2300575113477185,-0.22457326252462917,0.40512607339489987,0.06152320870190796,19.782621796237287,-34.22109603881836,-5.805244445800781,7.503604888916016,-0.5438098322860118,-1.3836739493043397,-1.340664556418251,0.2951425795190856,0.6690868238025135,0.3974734729064102,0.01326802881316163,0.04362548656699769,0.04497987956833967,-12.474027633666992,-34.89039373397827,-32.73992204666138,-2.7190491614300587,-6.918369746521699,-6.703322782091256,-2.1273269653320312,-6.269582748413086,-5.8735432624816895,-0.5271222570500687,-1.329930479844269,-1.282556344274113,-0.560993667113907,-1.4399225673237661,-1.3961513094680686,-0.08577168671111825,-0.2065365940363822,-0.20175494926743873,0.007219052847694886,0.01840916155904693,0.017859948650781617,-0.4288584335555912,-1.032682970181911,-1.0087747463371937,-0.07670877131036706,-0.1834871841254066,-0.17940020887615296,-0.09497482884686698,-0.2300575113477185,-0.22457326252462917
-132.68939208984375,16.630475997924805,20.35412979125977,-2.323928117752075,-6.912262916564941,-6.627561092376709,10.751985549926758,1.7437148094177246,6.2065863609313965,0.2833333333333333,-0.8877822469454779,-3.2933769351733106,-3.112560161360128,-0.5683918525051193,-1.467367375116877,-1.4220893108127364,-0.09971142761774297,-0.2422855728070258,-0.23642400678140196,0.5456981008990559,0.005289772974409026,19.64904325421736,15.9649658203125,-0.16267776489257812,16.97636604309082,-0.5520637513770218,-1.4111613283588613,-1.3685711497259758,0.15527095070634983,0.29342833576711275,0.13199778124691453,0.01312751883773349,0.04458469830285767,0.0431633375196173,-11.851757526397705,-33.73633623123169,-33.4939398765564,-2.760318756885109,-7.055806641794307,-6.842855748629879,-2.1273269653320312,-6.269582748413086,-6.577828407287598,-0.5361409514282567,-1.354824228099153,-1.312396214659712,-0.5683918525051193,-1.467367375116877,-1.4220893108127364,-0.09037221797259343,-0.21829627177270602,-0.21315970884848853,0.007328273971660165,0.018780661601878922,0.018219340607382013,-0.45186108986296714,-1.0914813588635301,-1.0657985442424427,-0.0811766125722692,-0.19477738602623287,-0.19033684399831724,-0.09971142761774297,-0.2422855728070258,-0.23642400678140196
-132.64820861816406,16.643884658813477,20.29068374633789,-2.279019832611084,-6.236119747161865,-6.6391377449035645,8.834684371948242,3.2215538024902344,5.513003349304199,0.2916666666666667,-0.8169424496573527,-2.538709714400559,-3.0436960762869587,-0.5751997062522639,-1.4885232894035483,-1.4474534447817944,-0.1045047585031785,-0.2546899335520554,-0.24848611882125024,0.6208811176795058,-0.4723255238546263,19.166959235318092,81.13718032836914,-1.3891983032226562,5.388994216918945,-0.5598755023418234,-1.4379011406197404,-1.3955825957503922,0.158222004903862,0.30710994968568944,0.12874406806303382,0.012902970466530616,0.04238837589274657,0.041445738276853904,-11.723600625991821,-33.70287322998047,-33.37143802642822,-2.7993775117091166,-7.189505703098702,-6.977912978751961,-2.1273269653320312,-6.236119747161865,-6.577828407287598,-0.542607195948127,-1.3830415243559548,-1.3426702392858294,-0.5751997062522639,-1.4885232894035483,-1.4474534447817944,-0.0950378471587753,-0.23027878127787052,-0.22478956381307516,0.00743544656140848,0.019133158139499486,0.018564629930186163,-0.47518923579387645,-1.1513939063893526,-1.1239478190653758,-0.08569833920517025,-0.2063027320625325,-0.2015257626590325,-0.1045047585031785,-0.2546899335520554,-0.24848611882125024
-132.6579132080078,16.655195236206055,20.220308303833008,-2.328880071640014,-6.295048713684082,-6.429131507873535,2.900031328201294,3.993297815322876,5.874664306640625,0.3,-0.8410879932502233,-2.5250847789840494,-2.7556996765183754,-0.5822087728626825,-1.5095656625617486,-1.470417608752781,-0.10935649827703418,-0.26726964740673664,-0.26073959889419007,0.4829091889920323,-0.3149149398324987,19.08645837252166,-7.071475982666016,25.200748443603516,-5.983228683471626,-0.5677958177247343,-1.4632059682608993,-1.4211320696437826,0.10606979041034012,0.36553475660825846,0.08755039621490232,0.011756595755873121,0.03908852882279519,0.04002399439256179,-11.925153732299805,-33.24886417388916,-32.899864196777344,-2.8389790886236717,-7.316029841304497,-7.105660348218913,-2.279019832611084,-6.236119747161865,-6.429131507873535,-0.5521850898896992,-1.410650946898556,-1.3695486744035323,-0.5822087728626825,-1.5095656625617486,-1.470417608752781,-0.09976947897314807,-0.24247216434671132,-0.2366323310601067,0.007533245070474043,0.019457590095090734,0.018897928693647925,-0.49884739486574037,-1.2123608217335566,-1.1831616553005335,-0.09029988162091775,-0.21805815662002045,-0.21293866827906194,-0.10935649827703418,-0.26726964740673664,-0.26073959889419007
-132.6940155029297,16.669689178466797,20.154621124267575,-2.373770236968994,-6.66893482208252,-6.2686076164245605,-0.364208847284317,3.316902637481689,5.784168243408203,0.30833333333333335,-0.8597215852319637,-2.823480443058604,-2.5210695164598667,-0.5893731194062821,-1.5330946662539036,-1.4914265213899465,-0.1142679409387532,-0.2800454362921858,-0.2731681532391063,0.3591915074138548,0.04102898409970715,19.25850339108084,-44.86633300781261,19.262866973876953,-5.386819839477592,-0.575233423628051,-1.4876947121319686,-1.4455076390410653,0.07063550068283911,0.36089755651068167,0.16468188384812815,0.011159809491203024,0.03617858239680149,0.037806420992723695,-11.77099609375,-33.15767049789429,-32.59064340591431,-2.8761671181402546,-7.438473560659843,-7.227538195205327,-2.279019832611084,-6.236119747161865,-6.2686076164245605,-0.560993667113907,-1.4399225673237661,-1.3961513094680686,-0.5893731194062821,-1.5330946662539036,-1.4914265213899465,-0.10456309083671518,-0.25486962028114446,-0.24867822805211554,0.007626232310737726,0.019758628953022623,0.01921253048302064,-0.5228154541835759,-1.2743481014057223,-1.2433911402605777,-0.09497482884686698,-0.2300575113477185,-0.22457326252462917,-0.1142679409387532,-0.2800454362921858,-0.2731681532391063
-132.73532104492188,16.681364059448242,20.101850509643555,-2.4517264366149902,-6.627384662628174,-6.112783432006836,-1.4927208423614502,2.4691994190216064,4.539239406585693,0.31666666666666665,-0.910647590472538,-2.7043777787640906,-2.2945351057251377,-0.5969618493268866,-1.5556311477436042,-1.5105476472709893,-0.11924262301647726,-0.2930090291900492,-0.2857560502996979,0.22228226455509278,0.08945481886349664,19.150337237129055,4.986019134521591,18.698902130126953,-9.354743957519531,-0.5824270600706468,-1.5108364282159363,-1.4683869066016495,0.06531948487874056,0.2805656167380623,0.22824561508284708,0.011278044854342707,0.034968005535244984,0.03497911110292242,-11.757324695587158,-32.73975086212158,-32.077221393585205,-2.912135300353234,-7.554182141079682,-7.3419345330082475,-2.279019832611084,-6.236119747161865,-6.112783432006836,-0.5683918525051193,-1.467367375116877,-1.4220893108127364,-0.5969618493268866,-1.5556311477436042,-1.5105476472709893,-0.10941664967063722,-0.2674599238496106,-0.26091478560712933,0.0077202073691117375,0.02004999198802013,0.01950342371098075,-0.5470832483531861,-1.3372996192480529,-1.3045739280356465,-0.09971142761774297,-0.2422855728070258,-0.23642400678140196,-0.11924262301647726,-0.2930090291900492,-0.2857560502996979
-132.78623962402344,16.697349548339844,20.062419891357425,-2.454997062683105,-6.40344762802124,-6.04873514175415,-3.037182569503784,0.9664122462272644,3.874652862548828,0.325,-0.8864727698503474,-2.4058890481099287,-2.1623320034931943,-0.6043491224089728,-1.5756802231445204,-1.5285670806334326,-0.1242788657032187,-0.3061396977162535,-0.2984941093049765,0.19905883249883757,-0.022569887585725413,18.952112179308653,26.87244415283203,7.685794830322266,-0.39247512817377483,-0.5896185140514175,-1.532498997821465,-1.4896824605657888,0.07679738086897836,0.1944523536801276,0.24023862901826637,0.011551860206440147,0.03485638463140992,0.03203449598349585,-11.888393640518188,-32.23093557357788,-31.498395442962646,-2.9480925702570877,-7.662494989107325,-7.4484123028289435,-2.279019832611084,-6.236119747161865,-6.04873514175415,-0.5751997062522639,-1.4885232894035483,-1.4474534447817944,-0.6043491224089728,-1.5756802231445204,-1.5285670806334326,-0.11433013728773236,-0.28023074883145604,-0.27332880611184424,0.007816468748334323,0.02034032827447345,0.019769938937941052,-0.5716506864386618,-1.4011537441572803,-1.3666440305592211,-0.1045047585031785,-0.2546899335520554,-0.24848611882125024,-0.1242788657032187,-0.3061396977162535,-0.2984941093049765
-132.8497772216797,16.71673011779785,20.02918815612793,-2.552358865737915,-6.680769443511963,-6.077454566955566,-4.83129358291626,0.1842432022094726,3.695570707321167,0.3333333333333333,-0.95581440815964,-2.608946598876467,-2.123875462064695,-0.6123142424769698,-1.5974214448018242,-1.546266042817305,-0.12938148439052677,-0.319451543089602,-0.3113796596617874,0.11386237001842511,0.1349888991526463,19.193575198616063,-33.27861785888672,-3.446331024169922,-11.683416366577202,-0.5970414212963587,-1.5542786289011201,-1.509444980172891,0.08577307014925624,0.17507482042451816,0.15961857323369025,0.011889892845385639,0.034529587817991675,0.029876670798007442,-12.16173267364502,-32.67558526992798,-30.93671226501465,-2.9852071064817935,-7.771393144505601,-7.547224900864455,-2.328880071640014,-6.295048713684082,-6.04873514175415,-0.5822087728626825,-1.5095656625617486,-1.470417608752781,-0.6123142424769698,-1.5974214448018242,-1.546266042817305,-0.11930548246520203,-0.29318307073896543,-0.28590751427995165,0.007915545116236967,0.020627894102270714,0.0200186837142743,-0.5965274123260101,-1.465915353694827,-1.4295375713997582,-0.10935649827703418,-0.26726964740673664,-0.26073959889419007,-0.12938148439052677,-0.319451543089602,-0.3113796596617874
-132.90936279296875,16.735801696777344,20.002140045166016,-2.6464662551879883,-6.590634346008301,-5.997694969177246,-4.502816200256348,-0.3388635218143463,3.184028625488281,0.3416666666666667,-1.0205661998413111,-2.4437054661364987,-1.9780448435827376,-0.6208189608089807,-1.6177856570196285,-1.5627497498471612,-0.1345549757306016,-0.33293309023143225,-0.32440257424384705,-0.002611516839526846,0.09937033804485622,19.10530571750191,10.816211700439453,9.571151733398438,-11.292886734008789,-0.6047634588856183,-1.575922627792696,-1.5279114083917669,0.10535395953699554,0.11244994383926823,0.10269990185776841,0.012376316198354024,0.03339442154390476,0.028212052947894334,-12.479318857192993,-32.9711709022522,-30.50527572631836,-3.023817294428092,-7.879613138963481,-7.639557041958835,-2.373770236968994,-6.40344762802124,-5.997694969177246,-0.5893731194062821,-1.5330946662539036,-1.4914265213899465,-0.6208189608089807,-1.6177856570196285,-1.5627497498471612,-0.12434517795591551,-0.3063157593039046,-0.29864010934988305,0.008018658292198817,0.020906105905427182,0.02025365140717507,-0.6217258897795775,-1.531578796519523,-1.4932005467494154,-0.1142679409387532,-0.2800454362921858,-0.2731681532391063,-0.1345549757306016,-0.33293309023143225,-0.32440257424384705
-132.97999572753906,16.754150390625,19.97635269165039,-2.684460401535034,-6.619717121124268,-6.024627208709717,-5.939915180206299,-0.3680509328842163,3.0250027179718018,0.35,-1.0283822133776308,-2.3989437681265047,-1.9400185469084823,-0.6293888125871276,-1.6377768550873495,-1.5789165710713986,-0.139799882502161,-0.3465812306904935,-0.3375602123361087,-0.02705111373687617,0.1022908782991028,19.154084772116704,-3.4899330139160156,-3.2318687438964844,-4.559297561645508,-0.6127665975217875,-1.5968590655593853,-1.5454094183280573,0.10695093409284441,0.10625991420267145,0.0448642128829196,0.012864555628285956,0.032637358095693215,0.027033116764103072,-12.790009021759033,-32.921953201293945,-30.261295318603516,-3.0638329876089374,-7.984295327796927,-7.727047091640286,-2.4517264366149902,-6.40344762802124,-5.997694969177246,-0.5969618493268866,-1.5556311477436042,-1.5105476472709893,-0.6293888125871276,-1.6377768550873495,-1.5789165710713986,-0.12945156626859705,-0.3196229181835661,-0.3115185211692835,0.008125833833220061,0.021178036878551416,0.020478818292886065,-0.6472578313429853,-1.5981145909178305,-1.5575926058464176,-0.11924262301647726,-0.2930090291900492,-0.2857560502996979,-0.139799882502161,-0.3465812306904935,-0.3375602123361087
-133.0504913330078,16.771509170532227,19.954179763793945,-2.770251035690308,-6.71891975402832,-5.869204998016357,-5.980103969573975,-0.6183788180351257,2.650343418121338,0.35833333333333334,-1.083250095582418,-2.4239575440156624,-1.7213809584051134,-0.6384158967169812,-1.65797650128748,-1.5932614123914413,-0.1451200149748025,-0.36039770153455586,-0.35083739077270404,-0.1763408232684653,0.2526746196545346,19.146530416658365,-11.904315948486328,18.650665283203125,-10.294876098632866,-0.6210574069998065,-1.6173281362681606,-1.5619521713521478,0.12167344367845646,0.1222073436480252,0.08067014860501433,0.013475867697010627,0.032409389218306654,0.025638420751154,-13.10853362083435,-33.01348829269409,-30.017716884613037,-3.1052870349990322,-8.086640681340803,-7.8097608567607395,-2.454997062683105,-6.40344762802124,-5.869204998016357,-0.6043491224089728,-1.5756802231445204,-1.5285670806334326,-0.6384158967169812,-1.65797650128748,-1.5932614123914413,-0.1346270446602621,-0.3331006526524674,-0.32453478926388474,0.008238121472178042,0.021448043162529868,0.020692271629306803,-0.6731352233013105,-1.665503263262337,-1.6226739463194237,-0.1242788657032187,-0.3061396977162535,-0.2984941093049765,-0.1451200149748025,-0.36039770153455586,-0.35083739077270404
-133.11654663085938,16.793628692626953,19.939044952392575,-2.81730580329895,-6.636977195739746,-5.781674861907959,-5.756927013397217,-1.580346941947937,2.524116277694702,0.36666666666666664,-1.098568171059013,-2.2684232877888935,-1.5733312315334613,-0.6475706314758063,-1.6768800286857208,-1.6063725059875535,-0.15051643690376756,-0.3743717017736035,-0.3642238283226003,-0.2540185041088799,0.243843453017377,19.04528329099225,9.833106994628906,10.503616333007812,-5.646572113037056,-0.6297017088131731,-1.6375680973764006,-1.577513256422972,0.10420061348938352,0.050758840549508424,0.12139789458196036,0.013933418188772946,0.03148441333683128,0.02385990087138946,-13.470842361450195,-33.2470178604126,-29.750656604766846,-3.1485085440658653,-8.187840486882003,-7.887566282114859,-2.552358865737915,-6.590634346008301,-5.781674861907959,-0.6123142424769698,-1.5974214448018242,-1.546266042817305,-0.6475706314758063,-1.6768800286857208,-1.6063725059875535,-0.13987455890037187,-0.3467470534639374,-0.3376807330674095,0.008354228438366463,0.021710362450666203,0.020890811598516697,-0.6993727945018594,-1.733735267319687,-1.6884036653370473,-0.12938148439052677,-0.319451543089602,-0.3113796596617874,-0.15051643690376756,-0.3743717017736035,-0.3642238283226003
-133.1713409423828,16.818790435791016,19.928516387939453,-2.858242988586426,-6.79814338684082,-5.840012550354004,-4.498064994812012,-2.24147629737854,2.4186370372772217,0.375,-1.1073408412198376,-2.35606914825824,-1.5720206746091208,-0.656798471819305,-1.6965139382545396,-1.619472678275963,-0.15598975750226177,-0.3885093179257247,-0.3777194339749,-0.2702028925675262,0.3189884507229515,19.207621499256966,-19.339942932128906,-7.000522613525391,-4.91246223449707,-0.6385985546816402,-1.6573865960669436,-1.5921545835147035,0.08878138103160935,0.08469094648339608,0.10438987936091716,0.014253962760180662,0.031080810497835978,0.02230214063410569,-13.776726484298706,-33.364391803741455,-29.513214588165283,-3.192992773408201,-8.286932980334718,-7.960772917573518,-2.6464662551879883,-6.590634346008301,-5.781674861907959,-0.6208189608089807,-1.6177856570196285,-1.5627497498471612,-0.656798471819305,-1.6965139382545396,-1.619472678275963,-0.1451962135227189,-0.36055860843116194,-0.35094868793003203,0.00847300868807974,0.021969330578528425,0.02107642055632016,-0.7259810676135944,-1.8027930421558098,-1.7547434396501602,-0.1345549757306016,-0.33293309023143225,-0.32440257424384705,-0.15598975750226177,-0.3885093179257247,-0.3777194339749
-133.2196044921875,16.847440719604492,19.91983795166016,-2.8406994342803955,-6.56013298034668,-5.85963249206543,-3.8448245525360103,-2.6644434928894043,2.582913875579834,0.3833333333333333,-1.0577543922140702,-2.045927782880474,-1.5319540265015759,-0.6656130917544222,-1.71356333644521,-1.6322389618301427,-0.16153653326688194,-0.40278901239610143,-0.3913214253234845,-0.23580893677638,0.15092928918049822,19.049146358448162,28.561248779296875,-2.3543930053710938,2.105226516723633,-0.6475573808707284,-1.67654213195206,-1.6060524259112998,0.06966690742187903,0.09280571351608881,0.09026591596423085,0.014362017955557135,0.030070692275360127,0.021011335827178266,-13.970959663391113,-33.333890438079834,-29.375152111053467,-3.237786904353642,-8.3827106597603,-8.0302621295565,-2.684460401535034,-6.56013298034668,-5.781674861907959,-0.6293888125871276,-1.6377768550873495,-1.5789165710713986,-0.6656130917544222,-1.71356333644521,-1.6322389618301427,-0.15059252502997494,-0.37452979286409577,-0.3643324581459595,0.008592681814914882,0.02221977573704198,0.02125145442495989,-0.7529626251498748,-1.872648964320479,-1.8216622907297975,-0.139799882502161,-0.3465812306904935,-0.3375602123361087,-0.16153653326688194,-0.40278901239610143,-0.3913214253234845
-133.26461791992188,16.878582000732422,19.91299057006836,-2.8345305919647217,-6.661015033721924,-5.892197132110596,-3.454873323440552,-3.0437140464782715,2.652034044265747,0.39166666666666666,-1.0200615110449602,-2.0765670420459426,-1.5050130871498748,-0.6741136043464635,-1.730868061795593,-1.6447807375563916,-0.1671541466364358,-0.4172129129110647,-0.40502793146978777,-0.21724632664308657,0.21333954229759394,19.138931464704736,-12.105846405029297,-3.907756805419922,0.7402610778808594,-0.6565023392225957,-1.6951603732937088,-1.6192252592082983,0.03352572912628972,0.08934340567578207,0.04183208905789194,0.014143416942672392,0.028863261879788514,0.020382681083485593,-14.1210298538208,-33.37518835067749,-29.242722034454346,-3.2825116961129783,-8.475801866468544,-8.096126296041492,-2.770251035690308,-6.56013298034668,-5.781674861907959,-0.6384158967169812,-1.65797650128748,-1.5932614123914413,-0.6741136043464635,-1.730868061795593,-1.6447807375563916,-0.15606337785682992,-0.38865612930821003,-0.37782600197269534,0.008710507266031512,0.022460150477726336,0.021421292205605524,-0.7803168892841496,-1.9432806465410501,-1.8891300098634767,-0.1451200149748025,-0.36039770153455586,-0.35083739077270404,-0.1671541466364358,-0.4172129129110647,-0.40502793146978777
-133.29412841796875,16.910924911499023,19.910383224487305,-2.8329553604125977,-6.640200614929199,-5.894922733306885,-1.8035366535186768,-3.479552745819092,2.4266157150268555,0.4,-0.9873428563269755,-1.9855516394960357,-1.4485567149412857,-0.6823414614825216,-1.7474143254580599,-1.6568520435142358,-0.17284032548212347,-0.4317746989565485,-0.4188350318324064,-0.21056218528904017,0.2033454814434802,19.125703327905935,2.497730255126953,-0.3270721435546875,0.1890277862548828,-0.6652874521757037,-1.7130479381278245,-1.6319433854328573,0.014789763236933018,0.08657023031556248,0.04634518166322891,0.013736764174262802,0.02775050380763468,0.019966939143002353,-14.18373417854309,-33.29646921157837,-29.268439769744873,-3.3264372608785187,-8.565239690639123,-8.159716927164286,-2.81730580329895,-6.56013298034668,-5.781674861907959,-0.6475706314758063,-1.6768800286857208,-1.6063725059875535,-0.6823414614825216,-1.7474143254580599,-1.6568520435142358,-0.16160743995829413,-0.40293152879260863,-0.3914255301846358,0.008824927830526427,0.022691246076473975,0.021587650385262575,-0.8080371997914706,-2.014657643963043,-1.957127650923179,-0.15051643690376756,-0.3743717017736035,-0.3642238283226003,-0.17284032548212347,-0.4317746989565485,-0.4188350318324064
-133.30844116210938,16.945730209350586,19.91231346130371,-2.802893877029419,-6.568063735961914,-5.900242328643799,-0.0811074823141098,-4.083766937255859,2.2761833667755127,0.4083333333333333,-0.9267177570523764,-1.8447167505604112,-1.3952466465633133,-0.690064109457958,-1.7627869650460632,-1.6684790989022633,-0.17859085972760647,-0.44646459033193236,-0.43273902432325856,-0.1741989462152234,0.16212722628068138,19.070232413492818,8.656425476074219,-0.6383514404296875,3.6073780059814453,-0.6737861477721341,-1.7302293253998928,-1.6443647040157994,0.020009227451605372,0.09598529276765712,0.026273936695317253,0.013168643021238664,0.0263164142157857,0.019392378279744812,-14.16932225227356,-33.22755575180054,-29.387007236480713,-3.36893073886067,-8.651146626999465,-8.221823520078997,-2.802893877029419,-6.56013298034668,-5.840012550354004,-0.656798471819305,-1.6965139382545396,-1.619472678275963,-0.690064109457958,-1.7627869650460632,-1.6684790989022633,-0.1672223245230619,-0.41735010650427434,-0.40512856938476743,0.008934609109843776,0.022910463796629612,0.021749209145245658,-0.8361116226153095,-2.0867505325213718,-2.0256428469238372,-0.15598975750226177,-0.3885093179257247,-0.3777194339749,-0.17859085972760647,-0.44646459033193236,-0.43273902432325856
-133.3047332763672,16.982194900512695,19.91875267028809,-2.7522456645965576,-6.594028472900391,-5.915435791015625,1.8630256652832031,-4.577404499053955,2.0709619522094727,0.4166666666666667,-0.8464956580920338,-1.8030809782451458,-1.35225448583697,-0.6971182399420583,-1.777812639864773,-1.679747886284238,-0.18440017839379028,-0.4612796956641388,-0.4467369233756272,-0.11718616192668817,0.18934790857260092,19.083557196152526,-3.1157684326171875,-1.8232154846191406,6.077785491943359,-0.6818501013966848,-1.7464890657219398,-1.6564197456174543,0.03681610815172419,0.04436776013477175,0.02044644002705528,0.012493211021753462,0.025375989326072643,0.018774942365420575,-14.063324928283691,-33.02344083786011,-29.462430477142334,-3.409250506983424,-8.7324453286097,-8.282098728087272,-2.7522456645965576,-6.56013298034668,-5.85963249206543,-0.6656130917544222,-1.71356333644521,-1.6322389618301427,-0.6971182399420583,-1.777812639864773,-1.679747886284238,-0.17290440870136758,-0.4319041820519572,-0.4189320672649129,0.009038620725301297,0.02312179463293384,0.021905615964010836,-0.8645220435068379,-2.159520910259786,-2.0946603363245644,-0.16153653326688194,-0.40278901239610143,-0.3913214253234845,-0.18440017839379028,-0.4612796956641388,-0.4467369233756272
-133.29281616210938,17.02001190185547,19.931835174560547,-2.70416522026062,-6.539076805114746,-5.942386150360107,2.676034450531006,-5.259140968322754,1.6641697883605957,0.425,-0.7699755141272506,-1.6814738798389097,-1.321278593482738,-0.7035347025597855,-1.7918249221967637,-1.6907585412299275,-0.19026296758178848,-0.47621157001577846,-0.4608265778858766,-0.05400190001094503,0.14934079200437833,19.048980965684862,6.594200134277344,-3.2340431213378906,5.7696533203125,-0.6894344235577574,-1.7621413828722505,-1.668123661497411,0.05630198428905246,0.05026183002349224,0.020695713778065238,0.011654323433830998,0.024093694248389697,0.018162655286468175,-13.926790714263916,-33.002384662628174,-29.54518413543701,-3.447172117788787,-8.810706914361253,-8.340618307487055,-2.70416522026062,-6.539076805114746,-5.892197132110596,-0.6741136043464635,-1.730868061795593,-1.6447807375563916,-0.7035347025597855,-1.7918249221967637,-1.6907585412299275,-0.1786496955643489,-0.4465886935758926,-0.43283309777739126,0.009135590118934734,0.023322449907731652,0.02205693353720611,-0.8932484778217444,-2.232943467879463,-2.1641654888869564,-0.1671541466364358,-0.4172129129110647,-0.40502793146978777,-0.19026296758178848,-0.47621157001577846,-0.4608265778858766
-133.2769317626953,17.056385040283203,19.948205947875977,-2.595366239547729,-6.561578273773193,-6.020073890686035,2.9770150184631348,-5.397906303405762,1.2860909700393677,0.43333333333333335,-0.6343527893669503,-1.6382880287542383,-1.3407716000054446,-0.7088209758045101,-1.8054773224363823,-1.7019316378966396,-0.19616980904682607,-0.491257214369415,-0.4750093415350153,0.0833239096674381,0.15281655346241163,19.083684771255808,-2.700176239013672,-9.322528839111328,13.055877685546928,-0.6963758978493667,-1.7770632350004085,-1.6795538415654607,0.09343276970092249,0.03865137882310338,0.05120647264769624,0.010529525141321853,0.022960286922253482,0.01777899235315733,-13.687626361846924,-32.90294790267944,-29.67306089401245,-3.4818794892468334,-8.885316175002043,-8.397769207827304,-2.595366239547729,-6.539076805114746,-5.894922733306885,-0.6823414614825216,-1.7474143254580599,-1.6568520435142358,-0.7088209758045101,-1.8054773224363823,-1.7019316378966396,-0.18445282804642696,-0.46139755386756265,-0.44682937979043685,0.00922308280276716,0.023513694006455307,0.02220507814343621,-0.9222641402321348,-2.3069877693378134,-2.234146898952184,-0.17284032548212347,-0.4317746989565485,-0.4188350318324064,-0.19616980904682607,-0.491257214369415,-0.4750093415350153
-133.26048278808594,17.088125228881836,19.963956832885746,-2.497169017791748,-6.7019944190979,-6.124744892120361,3.1198649406433105,-4.979394435882568,0.9240847826004028,0.44166666666666665,-0.5113576623487064,-1.712330390536966,-1.3863275382569356,-0.7130822896574159,-1.8197467423575235,-1.713484367382114,-0.20211216146063787,-0.5064217705557277,-0.48928837792986624,0.21843782502596268,0.22049839634519394,19.22109704893112,-16.849937438964844,-12.56052017211914,11.78366661071772,-0.7025240634843455,-1.7915297183803012,-1.6908803063390365,0.123523746349093,0.06402671492784835,0.09287082832839229,0.009173630940639894,0.022389324233659566,0.01774003383927914,-13.351840019226074,-32.964741706848145,-29.902883052825928,-3.5126203174217276,-8.957648591901506,-8.454401531695183,-2.497169017791748,-6.539076805114746,-5.900242328643799,-0.690064109457958,-1.7627869650460632,-1.6684790989022633,-0.7130822896574159,-1.8197467423575235,-1.713484367382114,-0.19030719524212983,-0.4763269681873985,-0.4609200490099288,0.009299123481066604,0.023700235858288836,0.02235290915947817,-0.9515359762106491,-2.3816348409369925,-2.304600245049644,-0.17859085972760647,-0.44646459033193236,-0.43273902432325856,-0.20211216146063787,-0.5064217705557277,-0.48928837792986624
-133.248779296875,17.11261558532715,19.984045028686523,-2.344235420227051,-6.747551918029785,-6.284148216247559,2.340026617050171,-4.728694915771484,-0.0436722747981548,0.45,-0.3360079009941388,-1.6906407055640953,-1.4850154434798872,-0.7158823554990338,-1.833835414903891,-1.7258594960777798,-0.20807784775646315,-0.5217037323465934,-0.5036705403971811,0.42853574497763136,0.20470145858522115,19.312098180078518,-5.466899871826172,-19.128398895263672,18.352031707763672,-0.7076877126925607,-1.8057394083518665,-1.7023563857741397,0.16413279888813995,0.09115577563601927,0.15060323688004693,0.00752494458489138,0.02213129572705182,0.01818009094191068,-12.893181562423706,-33.144229888916016,-30.286788940429688,-3.5384385634628037,-9.028697041759333,-8.511781928870699,-2.344235420227051,-6.539076805114746,-5.915435791015625,-0.6971182399420583,-1.777812639864773,-1.679747886284238,-0.7158823554990338,-1.833835414903891,-1.7258594960777798,-0.19620459284790118,-0.4913747965903307,-0.4751063522247133,0.009361114655290902,0.023884661056367093,0.02250438045425446,-0.9810229642395059,-2.4568739829516533,-2.3755317611235665,-0.18440017839379028,-0.4612796956641388,-0.4467369233756272,-0.20807784775646315,-0.5217037323465934,-0.5036705403971811
-133.23854064941406,17.13422393798828,20.0039119720459,-2.194744825363159,-6.743935585021973,-6.381007671356201,2.228605031967163,-4.491456508636475,-0.2806039750576019,0.4583333333333333,-0.16689611147325856,-1.620128048838965,-1.519640148698322,-0.7172731564279776,-1.8473364819775488,-1.7385231639835992,-0.21405512406002963,-0.5370982030297397,-0.5181582334303777,0.6092605321529931,0.19118512698632587,19.328775172072856,0.4339599609375,-11.62313461303711,17.938871383666992,-0.7117186959897446,-1.8196441767744218,-1.714111441314012,0.20176058353774548,0.10096587582247805,0.18164615215484722,0.005599598416250379,0.02203903476730033,0.01889475965555226,-12.335680723190308,-33.2941370010376,-30.752360820770264,-3.558593479948723,-9.09822088387211,-8.57055720657006,-2.194744825363159,-6.539076805114746,-5.942386150360107,-0.7035347025597855,-1.7918249221967637,-1.6907585412299275,-0.7172731564279776,-1.8473364819775488,-1.7385231639835992,-0.20213558198114906,-0.5065384980634509,-0.4893906142356633,0.009406593084311094,0.024068307584593,0.02266179513330331,-1.0106779099057452,-2.5326924903172543,-2.4469530711783167,-0.19026296758178848,-0.47621157001577846,-0.4608265778858766,-0.21405512406002963,-0.5370982030297397,-0.5181582334303777
-133.22921752929688,17.14637565612793,20.02436637878418,-2.1844422817230225,-6.727743625640869,-6.456234931945801,2.039930582046509,-3.7448270320892334,-1.1494388580322266,0.4666666666666667,-0.13854101572422106,-1.5379103889738825,-1.531837938743422,-0.7184276648923461,-1.8601524018856646,-1.7512884801397943,-0.22004202126746586,-0.5525994730454535,-0.5327523040982093,0.6544246779317145,0.13613719709297512,19.363558859162875,1.9430351257324219,-9.027271270751953,1.2363052368164062,-0.7146972884562567,-1.8333096727122018,-1.7262174290959855,0.18203020570009734,0.07756713155683259,0.17983622086098483,0.003843646041187281,0.021657289155017547,0.01957068817386232,-11.81595778465271,-33.48280382156372,-31.266209602355957,-3.5734864422812835,-9.16654836356101,-8.631087145479928,-2.1844422817230225,-6.561578273773193,-6.020073890686035,-0.7088209758045101,-1.8054773224363823,-1.7019316378966396,-0.7184276648923461,-1.8601524018856646,-1.7512884801397943,-0.20809139271828453,-0.5218160786693858,-0.5037757594781299,0.00943741438863148,0.024248722778612796,0.022824864685056852,-1.0404569635914227,-2.6090803933469293,-2.5188787973906495,-0.19616980904682607,-0.491257214369415,-0.4750093415350153,-0.22004202126746586,-0.5525994730454535,-0.5327523040982093
-133.21881103515625,17.150123596191406,20.04142189025879,-2.173093557357788,-6.74293327331543,-6.501059532165527,2.344918966293335,-2.7917468547821045,-1.6176412105560305,0.475,-0.10953022929258394,-1.487780728313104,-1.5132857150150913,-0.7193404168031177,-1.8725505746216071,-1.7638991944315867,-0.22603652474082517,-0.5682040611673003,-0.5474514640518059,0.6849336368844534,0.12197439967016577,19.40005985054649,-1.8227577209472656,-5.3789520263671875,1.361846923828125,-0.7168011766559783,-1.8467243231492472,-1.738610940402975,0.14063188269136734,0.018833807760057247,0.1501175093254855,0.0024489958268362516,0.02086622344378099,0.019963513683973422,-11.393685102462769,-33.66415882110596,-31.74719524383545,-3.5840058832798913,-9.233621615746236,-8.693054702014875,-2.173093557357788,-6.7019944190979,-6.124744892120361,-0.7130822896574159,-1.8197467423575235,-1.713484367382114,-0.7193404168031177,-1.8725505746216071,-1.7638991944315867,-0.21406473585708433,-0.5372054480289629,-0.518264183981488,0.009457254175665756,0.024422528084083475,0.022991226246908622,-1.0703236792854216,-2.6860272401448144,-2.59132091990744,-0.20211216146063787,-0.5064217705557277,-0.48928837792986624,-0.22603652474082517,-0.5682040611673003,-0.5474514640518059
-133.21376037597656,17.14439582824707,20.05548095703125,-2.144235849380493,-6.664981365203857,-6.580016613006592,1.753844976425171,-1.741972804069519,-2.21038031578064,0.48333333333333334,-0.06355465731816645,-1.3457327107975416,-1.5284917762972698,-0.7198700389474357,-1.8837650138782533,-1.7766366259007307,-0.2320354417320538,-0.5839021029496191,-0.5622567692676453,0.7474632850277714,0.02602213559269846,19.38898554596052,9.354228973388672,-9.474849700927734,3.4629249572753906,-0.7181587265139822,-1.8595279774533933,-1.751241392106698,0.07838202764459806,0.03463232168010456,0.11331940208548136,0.0016096124852325335,0.0197873204971687,0.02006946716433802,-11.040751934051514,-33.627145767211914,-32.20246696472168,-3.590793632569911,-9.297639887266966,-8.75620696053349,-2.144235849380493,-6.664981365203857,-6.284148216247559,-0.7158823554990338,-1.833835414903891,-1.7258594960777798,-0.7198700389474357,-1.8837650138782533,-1.7766366259007307,-0.22004939191136752,-0.5527015145077412,-0.5328578622490439,0.009470484684987379,0.024587303189351945,0.023158470017901278,-1.1002469595568376,-2.763507572538706,-2.664289311245219,-0.20807784775646315,-0.5217037323465934,-0.5036705403971811,-0.2320354417320538,-0.5839021029496191,-0.5622567692676453
-133.21754455566406,17.126922607421875,20.066150665283203,-2.0734708309173584,-6.615574836730957,-6.58616304397583,0.8694496154785156,-0.5148589015007019,-2.968318223953247,0.49166666666666664,0.02328691713246167,-1.2339896112094646,-1.4708441490369601,-0.7196759813046653,-1.8940482606383322,-1.7888936604760386,-0.23803274157625934,-0.5996858384549385,-0.577164216438279,0.8123777808306907,0.009746016439940079,19.337990486207577,5.928783416748047,-0.7375717163085938,8.491802215576172,-0.7189174516751085,-1.8715705466002812,-1.76384822498635,0.0488152714869766,0.05677269372094756,0.08645575353582206,0.0010729966404873135,0.018524153370336888,0.019936935196377834,-10.769987344741821,-33.495168685913086,-32.50448179244995,-3.5945872583755425,-9.357852733001407,-8.81924112493175,-2.0734708309173584,-6.615574836730957,-6.381007671356201,-0.7172731564279776,-1.8473364819775488,-1.7385231639835992,-0.7198700389474357,-1.8940482606383322,-1.7888936604760386,-0.22604037067532676,-0.5682979357294102,-0.5475565974572635,0.009478715414551286,0.024741485079452147,0.023324601364927353,-1.1302018533766338,-2.841489678647051,-2.7377829872863173,-0.21405512406002963,-0.5370982030297397,-0.5181582334303777,-0.23803274157625934,-0.5996858384549385,-0.577164216438279
-133.2299041748047,17.100751876831055,20.077150344848636,-2.020777463912964,-6.784655570983887,-6.670843601226807,-0.2257510423660278,0.193233773112297,-3.756750106811523,0.5,0.09082281129349035,-1.3403961051408615,-1.4916413900606935,-0.7189191245438862,-1.9052182281811727,-1.8013240053932111,-0.24402373428079172,-0.615562657023115,-0.5921752498165558,0.8863845474644354,0.09670466559813089,19.496083716819594,-20.289688110351562,-10.161666870117188,6.323204040527344,-0.7192466452982902,-1.883146895841006,-1.7764083932682724,0.06993928981309189,0.06685030673468523,0.08307554399487593,0.0005830396412387567,0.017659234915938286,0.01977505882454787,-10.596019983291626,-33.535888671875,-32.79431772232056,-3.5962332264914507,-9.41573447920503,-8.882041966341362,-2.020777463912964,-6.615574836730957,-6.456234931945801,-0.7184276648923461,-1.8601524018856646,-1.7512884801397943,-0.7198700389474357,-1.9052182281811727,-1.8013240053932111,-0.2320340927194792,-0.5839908265280853,-0.562360000734499,0.009480452178882165,0.024888555533075764,0.023489384321916662,-1.160170463597396,-2.9199541326404264,-2.811800003672495,-0.22004202126746586,-0.5525994730454535,-0.5327523040982093,-0.24402373428079172,-0.615562657023115,-0.5921752498165558
-133.24720764160156,17.061019897460938,20.082763671875,-1.9051172733306885,-6.907311916351318,-6.780296325683594,-0.5738229155540466,1.7301136255264282,-4.5141119956970215,0.5083333333333333,0.2197227764533647,-1.398593496339883,-1.5362524808953033,-0.7170881014067748,-1.916873173984005,-1.814126109400672,-0.2499994684591815,-0.6315366001396483,-0.6072929673948947,1.0267470156207288,0.1557622179023228,19.619912165579183,-14.718761444091797,-13.134326934814453,13.879222869873047,-0.7189787326011758,-1.8944910502606742,-1.788975919120448,0.10669889437401085,0.11297968262935831,0.1061871827824381,0.001116852458130263,0.017411635469532144,0.019787081331601553,-10.316694974899292,-33.71545696258545,-33.11837911605835,-3.5948936630058794,-9.472455251303371,-8.94487959560224,-1.9051172733306885,-6.615574836730957,-6.501059532165527,-0.7170881014067748,-1.8725505746216071,-1.7638991944315867,-0.7198700389474357,-1.916873173984005,-1.814126109400672,-0.23802558215782232,-0.5997782519469241,-0.5772681333938362,0.009473266508626956,0.025033628852832238,0.023654272336866046,-1.1901279107891116,-2.998891259734621,-2.886340666969181,-0.22603652474082517,-0.5682040611673003,-0.5474514640518059,-0.2499994684591815,-0.6315366001396483,-0.6072929673948947
-133.27108764648438,17.0091609954834,20.08248519897461,-1.8040640354156492,-6.793327331542969,-6.78702974319458,-1.2070708274841309,3.252739191055298,-5.114701747894287,0.5166666666666666,0.33201823849274015,-1.2207700208479597,-1.4778533405170249,-0.7143212827526686,-1.9270462574910714,-1.8264415539049805,-0.2559521458154537,-0.6475953189520739,-0.6225133136774362,1.1147820465582712,0.10382804362885918,19.516399782535455,13.678150177001953,-0.8080101013183594,12.126388549804714,-0.7179749057910861,-1.9053901868345668,-1.8014843910151268,0.1355355113280548,0.11518826664999768,0.10049480978358308,0.0023190579962065997,0.017300009791610293,0.019739786431726653,-9.947665452957152,-33.76585102081299,-33.4043493270874,-3.5898745289554306,-9.526950934172834,-9.007421955075634,-1.8040640354156492,-6.615574836730957,-6.580016613006592,-0.7143212827526686,-1.8837650138782533,-1.7766366259007307,-0.7198700389474357,-1.9270462574910714,-1.8264415539049805,-0.24400870637274802,-0.6156565035038789,-0.5922805033189622,0.009455242240958176,0.02517775955691155,0.023818767356571215,-1.2200435318637401,-3.0782825175193946,-2.961402516594811,-0.2320354417320538,-0.5839021029496191,-0.5622567692676453,-0.2559521458154537,-0.6475953189520739,-0.6225133136774362
-133.3124542236328,16.944791793823242,20.076824188232425,-1.7991114854812622,-6.877731323242188,-6.819560527801514,-3.062541007995605,4.698945045471191,-5.771502494812012,0.525,0.34716598023166334,-1.2422743583359015,-1.445613763733574,-0.7114282329174048,-1.9373985438105372,-1.838488335269427,-0.26188071442309874,-0.6637403068171617,-0.6378340498046815,1.1178460241992485,0.14865595803627532,19.59645583224939,-10.128479003906357,-3.9036941528320312,0.5943059921264382,-0.71628654458508,-1.9161168928210237,-1.813854732888866,0.12448371191469831,0.113753065052915,0.0974477950768594,0.0034105240867075078,0.017166370171577267,0.019655726533950788,-9.602541089057922,-33.97860097885132,-33.643893241882324,-3.5814327229254,-9.580584464105119,-9.06927366444433,-1.7991114854812622,-6.615574836730957,-6.58616304397583,-0.7114282329174048,-1.8940482606383322,-1.7888936604760386,-0.7196759813046653,-1.9373985438105372,-1.838488335269427,-0.24997776091095703,-0.6316241442773874,-0.6073959594263695,0.00942745947400381,0.02532074610064642,0.023982549061314584,-1.2498888045547851,-3.158120721386937,-3.0369797971318473,-0.23803274157625934,-0.5996858384549385,-0.577164216438279,-0.26188071442309874,-0.6637403068171617,-0.6378340498046815
-133.35540771484375,16.866283416748047,20.068098068237305,-1.7654556035995483,-7.057833671569824,-6.9514007568359375,-3.207324981689453,6.15643310546875,-6.769675254821777,0.5333333333333333,0.3905471744150337,-1.3579290511543363,-1.5119890663077262,-0.7081736731306129,-1.9487146192368234,-1.8510882441553247,-0.26778216169918717,-0.6799795953108019,-0.6532597851726425,1.1839046418632933,0.20991552939764924,19.80030166588864,-21.6122817993163,-15.82082748413086,4.038705825805664,-0.7139860829502694,-1.9270501645407223,-1.826293649624723,0.104467523951416,0.11055721103737406,0.1006553106382032,0.004312669749659467,0.017004721021315634,0.019589769777442773,-9.294525861740112,-34.420859813690186,-34.00913095474243,-3.5699304147513473,-9.635250822703611,-9.131468248123616,-1.7654556035995483,-6.784655570983887,-6.670843601226807,-0.7081736731306129,-1.9052182281811727,-1.8013240053932111,-0.7189191245438862,-1.9487146192368234,-1.8510882441553247,-0.2559276449355426,-0.6476828956485601,-0.622615073173242,0.009391692732509345,0.02546241112014214,0.02414578508611137,-1.279638224677713,-3.2384144782428006,-3.1130753658662105,-0.24402373428079172,-0.615562657023115,-0.5921752498165558,-0.26778216169918717,-0.6799795953108019,-0.6532597851726425
-133.4032440185547,16.777782440185547,20.05536651611328,-1.8194531202316284,-6.867771625518799,-6.945867538452148,-3.5924477577209477,7.282064437866211,-7.302978515625,0.5416666666666666,0.3463061244292771,-1.10420157901227,-1.4406250744446147,-0.7052877887603689,-1.9579162990619257,-1.8630934531090297,-0.27365955993885693,-0.6962955644696512,-0.668785563948551,1.123033720798419,0.061468518367915566,19.682020537961026,22.807445526123047,0.6639862060546875,-6.479701995849609,-0.711259815793566,-1.9375897787168725,-1.8386475391678867,0.052204840795955984,0.0973080042677616,0.08513196228470801,0.004705295975802767,0.016411197611799527,0.019382245670616603,-9.093201518058777,-34.5039758682251,-34.28415489196777,-3.55629907896783,-9.687948893584363,-9.193237695839434,-1.7654556035995483,-6.793327331542969,-6.780296325683594,-0.7052877887603689,-1.916873173984005,-1.814126109400672,-0.7170881014067748,-1.9579162990619257,-1.8630934531090297,-0.2618548100671556,-0.6638294771378674,-0.6379371359996412,0.009352497765956733,0.025599115667361887,0.024307298676862033,-1.309274050335778,-3.3191473856893374,-3.189685679998206,-0.2499994684591815,-0.6315366001396483,-0.6072929673948947,-0.27365955993885693,-0.6962955644696512,-0.668785563948551
-133.46792602539062,16.686120986938477,20.03725242614746,-1.8499003648757932,-6.807667255401611,-6.868784427642822,-5.489208221435547,8.037248611450195,-7.162176609039307,0.55,0.32618677983437405,-0.9832355423618742,-1.2991127057478744,-0.7025695655950824,-1.966109928581608,-1.8739193923235953,-0.27951430631881596,-0.712679813874498,-0.684401558884581,1.046064527886944,0.06030187043431944,19.60023886437824,7.2125244140625,9.24997329711914,-3.653669357299778,-0.7083561086312276,-1.947437129636393,-1.8506061957524715,0.03078362126490108,0.10549872073631211,0.0736700533725049,0.004689168363890828,0.01562593408569791,0.018910589358965432,-9.037984609603882,-34.40433120727539,-34.372642993927,-3.5417805431561376,-9.737185648181965,-9.253030978762357,-1.7654556035995483,-6.793327331542969,-6.78702974319458,-0.7025695655950824,-1.9270462574910714,-1.8264415539049805,-0.7143212827526686,-1.966109928581608,-1.8739193923235953,-0.2677577776390825,-0.6800581198848372,-0.6533588542975785,0.009313436668242352,0.02572906993664987,0.024464819762847312,-1.3387888881954124,-3.4002905994241863,-3.266794271487892,-0.2559521458154537,-0.6475953189520739,-0.6225133136774362,-0.27951430631881596,-0.712679813874498,-0.684401558884581
-133.53399658203125,16.59341049194336,20.0162410736084,-1.9763838052749636,-6.940746307373047,-6.847871780395508,-5.504499435424805,8.327969551086426,-6.991124153137207,0.5583333333333333,0.2112090981392063,-1.0555085528361463,-1.2152919481422195,-0.7008094897772558,-1.9749058331885758,-1.8840468252247804,-0.2853543854002931,-0.7291373624844028,-0.7001019490947875,0.8990410799234447,0.13190534322027223,19.716953431143345,-15.969486236572266,2.5095176696777344,-15.178012847900444,-0.7056537500361448,-1.9570090447758939,-1.8621272500164312,0.08112988882220208,0.09499475112706908,0.05920999196598396,0.0042663697602761405,0.014639957949086591,0.01803547813848249,-9.210304379463196,-34.55175018310547,-34.43348503112793,-3.5282687501807244,-9.78504522387947,-9.310636250082156,-1.7654556035995483,-6.807667255401611,-6.819560527801514,-0.7008094897772558,-1.9373985438105372,-1.838488335269427,-0.7114282329174048,-1.9749058331885758,-1.8840468252247804,-0.2736382255560504,-0.6963665285913031,-0.6688765813810487,0.00927806194363089,0.02585081138127587,0.024614933932478374,-1.3681911277802519,-3.4818326429565154,-3.3443829069052433,-0.26188071442309874,-0.6637403068171617,-0.6378340498046815,-0.2853543854002931,-0.7291373624844028,-0.7001019490947875
-133.59300231933594,16.502836227416992,19.99503326416016,-2.1289877891540527,-6.797679424285889,-6.707486152648926,-4.708024501800537,8.222310066223145,-6.79850435256958,0.5666666666666667,0.07230904377469649,-0.8523922839779088,-1.014042227740143,-0.7002069144124666,-1.982009102221725,-1.892497177122615,-0.291189443020397,-0.7456541050029172,-0.7158727589041426,0.6889559182991513,0.06901440494489748,19.56971217835109,17.168025970458984,16.846275329589844,-18.312478065490698,-0.7034094863351573,-1.9659311564581317,-1.8729290183870693,0.1458140628619714,0.10775555215738102,0.09889436635340777,0.003314642201398107,0.013226150373739452,0.016441236792656386,-9.540180683135986,-34.47169828414917,-34.32141065597534,-3.5170474316757865,-9.829655782290658,-9.364645091935346,-1.7654556035995483,-6.797679424285889,-6.707486152648926,-0.7002069144124666,-1.9487146192368234,-1.8510882441553247,-0.7081736731306129,-1.982009102221725,-1.892497177122615,-0.27949997127551,-0.7127492882284543,-0.6844843232009409,0.009251156492037822,0.025960925305702754,0.024751635307245005,-1.39749985637755,-3.5637464411422712,-3.4224216160047045,-0.26778216169918717,-0.6799795953108019,-0.6532597851726425,-0.291189443020397,-0.7456541050029172,-0.7158727589041426
-133.6522674560547,16.420467376708984,19.97591590881348,-2.2530081272125244,-6.820843696594238,-6.604401588439941,-4.754040718078613,7.324314117431641,-6.216920852661133,0.575,-0.03584887076301646,-0.8171862964440164,-0.8528151772455308,-0.7005056550021584,-1.9888189880254252,-1.8996039702663277,-0.297026990145415,-0.7622275965697958,-0.7317027919896953,0.515263513988141,0.11252289634927079,19.55371165444631,-2.779712677001953,12.370147705078125,-14.882440567016602,-0.7018758827094664,-1.9739520302158517,-1.8826321636092698,0.1845141843781506,0.058914237986956317,0.1369187165633419,0.002116747025391443,0.012303412286930188,0.014534747777239121,-10.027733206748962,-34.234708309173584,-33.974411487579346,-3.509379413547332,-9.869760151079259,-9.413160818046348,-1.8194531202316284,-6.797679424285889,-6.604401588439941,-0.7002069144124666,-1.9579162990619257,-1.8630934531090297,-0.7052877887603689,-1.9888189880254252,-1.8996039702663277,-0.2853489369647556,-0.7291988884802529,-0.7001729245643515,0.009235433351904455,0.026063298194476763,0.0248722976296185,-1.426744684823778,-3.645994442401265,-3.5008646228217577,-0.27365955993885693,-0.6962955644696512,-0.668785563948551,-0.297026990145415,-0.7622275965697958,-0.7317027919896953
-133.70155334472656,16.345478057861328,19.96169853210449,-2.3662400245666504,-6.840963840484619,-6.571937561035156,-3.7880258560180655,6.36004114151001,-5.98554801940918,0.5833333333333334,-0.13141062384055058,-0.7792259971391253,-0.7639983937450419,-0.701600743534163,-1.9953125380015846,-1.9059706235475364,-0.3028736630081997,-0.7788552010531423,-0.7475858805192581,0.3835605605281033,0.11299704214297132,19.578743746853956,-2.414417266845703,3.8956832885742188,-13.587827682495117,-0.7011384736642252,-1.9814312780037837,-1.891207597696971,0.20727739341926935,0.05775306321672627,0.1359503831578499,0.000953704624556368,0.011455639413250281,0.012651756074820886,-10.574520111083984,-34.207900524139404,-33.60048151016235,-3.5056923683211263,-9.907156390018919,-9.456037988484855,-1.8499003648757932,-6.797679424285889,-6.571937561035156,-0.7002069144124666,-1.966109928581608,-1.8739193923235953,-0.7025695655950824,-1.9953125380015846,-1.9059706235475364,-0.29119175757862414,-0.7457108157969511,-0.7159329878784929,0.009232478551353373,0.026158574024242497,0.024977233459353463,-1.4559587878931208,-3.7285540789847555,-3.5796649393924644,-0.27951430631881596,-0.712679813874498,-0.684401558884581,-0.3028736630081997,-0.7788552010531423,-0.7475858805192581
-133.7480926513672,16.27804183959961,19.94868469238281,-2.4165234565734863,-6.790177822113037,-6.580752849578857,-3.4406449794769287,5.585875988006592,-5.386969089508057,0.5916666666666667,-0.16285396328768842,-0.6712722995518696,-0.7172930300999543,-0.7029578598948938,-2.0009064738311837,-1.911948065465036,-0.30873164517399043,-0.7955294216684022,-0.7635187810648001,0.3308760537691358,0.057841472416790427,19.563952221558022,6.094322204589844,-1.0578346252441406,-6.0340118408203125,-0.7012161325241875,-1.9883905870536989,-1.898813332325259,0.17915821950114053,0.060771297707876815,0.11688244925440466,0.0011034262200900833,0.0103356940938146,0.010980854806587228,-11.141143202781677,-34.19041109085083,-33.31244993209839,-3.5060806626209375,-9.941952935268494,-9.494066661626295,-1.9763838052749636,-6.790177822113037,-6.571937561035156,-0.7002069144124666,-1.9749058331885758,-1.8840468252247804,-0.7029578598948938,-2.0009064738311837,-1.911948065465036,-0.29703522534965904,-0.7622807373557321,-0.7317564323145367,0.009239979055469656,0.026244613164324925,0.025068498632752408,-1.4851761267482952,-3.8114036867786605,-3.6587821615726837,-0.2853543854002931,-0.7291373624844028,-0.7001019490947875,-0.30873164517399043,-0.7955294216684022,-0.7635187810648001
-133.7997283935547,16.21877670288086,19.93657493591309,-2.421771287918091,-6.854715347290039,-6.5843377113342285,-4.143833637237549,4.891627788543701,-4.7750444412231445,0.6,-0.14901309427452292,-0.6791739980939973,-0.6658796683148953,-0.7041996356805148,-2.006566257148634,-1.9174970627009935,-0.31459997547132806,-0.8122508071446408,-0.779497923253975,0.31230681320934256,0.10486082055455759,19.612911323835984,-7.744503021240234,-0.43018341064453125,-0.6297397613525391,-0.7018941617048393,-1.9947226718457105,-1.9055033798205017,0.12524935509827304,0.02751855307923311,0.05589578523236218,0.0016813322547784095,0.009686926720256528,0.009868701288606393,-11.586530685424805,-34.10438013076782,-33.04891586303711,-3.509470808524197,-9.973613359228553,-9.527516899102508,-2.1289877891540527,-6.790177822113037,-6.571937561035156,-0.7002069144124666,-1.982009102221725,-1.892497177122615,-0.7041996356805148,-2.006566257148634,-1.9174970627009935,-0.30288434336386605,-0.7789034262877796,-0.7476356271463743,0.009253733962237038,0.02632524701104011,0.025150636182187512,-1.5144217168193301,-3.8945171314388984,-3.7381781357318715,-0.291189443020397,-0.7456541050029172,-0.7158727589041426,-0.31459997547132806,-0.8122508071446408,-0.779497923253975
-133.8566131591797,16.17034339904785,19.92295837402344,-2.3449862003326416,-6.966115474700928,-6.62395715713501,-4.66166353225708,4.064838409423828,-3.679741382598877,0.6083333333333333,-0.053965273524553936,-0.7330989130141505,-0.6507604866364582,-0.7046493462932194,-2.012675414757085,-1.9229200667562973,-0.3204720533571049,-0.8290231022676166,-0.7955222571436109,0.3823130749438684,0.19189890989879377,19.695319672488342,-13.36801528930664,-4.75433349609375,9.214210510253906,-0.7027826480809899,-2.0008559343527823,-1.9115879577472383,0.06841221897031007,0.06691665994830616,0.02095808994788441,0.0017395912660185633,0.009326411122306985,0.009201009359891644,-11.802529096603394,-34.27281618118286,-32.96538686752319,-3.5139132404049493,-10.004279671763912,-9.557939788736192,-2.2530081272125244,-6.790177822113037,-6.571937561035156,-0.7005056550021584,-1.9888189880254252,-1.8996039702663277,-0.7046493462932194,-2.012675414757085,-1.9229200667562973,-0.30874086543120766,-0.7955772257407195,-0.7635655267942679,0.009268076447026968,0.0264029408125528,0.025227262143532762,-1.5437043271560382,-3.977886128703598,-3.8178276339713397,-0.297026990145415,-0.7622275965697958,-0.7317027919896953,-0.3204720533571049,-0.8290231022676166,-0.7955222571436109
-133.9124755859375,16.131189346313477,19.9110050201416,-2.42164945602417,-7.138734817504883,-6.643740177154541,-4.658051013946533,3.2138054370880127,-3.0355687141418457,0.6166666666666667,-0.11258279326820642,-0.8465004452808031,-0.6159270711282891,-0.7055875362371211,-2.019729585134425,-1.9280527923490332,-0.3263519494924142,-0.8458541821437368,-0.8115893637465195,0.3037037668358617,0.28547480075435466,19.849495633954927,-20.71432113647461,-2.37396240234375,-9.199590682983398,-0.7037990243279825,-2.007038053774582,-1.9172777221637793,0.03611003240736436,0.13902956952625575,0.031168666375106648,0.0015509922470256382,0.009593766099685205,0.00872126739508584,-11.971170425415039,-34.590707302093506,-33.00472545623779,-3.5189951216399122,-10.035190268872912,-9.586388610818897,-2.3449862003326416,-6.790177822113037,-6.571937561035156,-0.701600743534163,-1.9953125380015846,-1.9059706235475364,-0.7055875362371211,-2.019729585134425,-1.9280527923490332,-0.3146058573006074,-0.8123025428555077,-0.7795428411456327,0.009280809818799432,0.026482798901203367,0.025299907104633538,-1.573029286503037,-4.061512714277539,-3.8977142057281635,-0.3028736630081997,-0.7788552010531423,-0.7475858805192581,-0.3263519494924142,-0.8458541821437368,-0.8115893637465195
-133.95372009277344,16.093841552734375,19.907794952392575,-2.3228673934936523,-7.125522136688232,-6.636788368225098,-3.1338374614715576,2.282100200653076,-3.5417699813842773,0.625,0.0038437983569736822,-0.7733948753341595,-0.554874306306246,-0.7055555045841463,-2.026174542428876,-1.9326767449015851,-0.3322315786972821,-0.8627389699973107,-0.827695003287366,0.3820656785646737,0.3168649085252046,19.80846792962833,1.5855216979980469,0.8342170715332031,11.85384750366211,-0.7045899765379791,-2.0132104546600407,-1.9226189464345889,0.047825301830781895,0.15666250340643173,0.029530159630615737,0.0010893880450345696,0.01007951147527647,0.008229186753757552,-11.927797794342041,-34.87526559829712,-33.069576263427734,-3.522949882689895,-10.066052273300203,-9.613094732172945,-2.3228673934936523,-6.790177822113037,-6.580752849578857,-0.7029578598948938,-2.0009064738311837,-1.911948065465036,-0.7055875362371211,-2.026174542428876,-1.9326767449015851,-0.32047744043842397,-0.8290792966443414,-0.7955646656992543,0.00928948266438761,0.026566735409609243,0.025368436463079826,-1.6023872021921197,-4.145396483221707,-3.977823328496272,-0.30873164517399043,-0.7955294216684022,-0.7635187810648001,-0.3322315786972821,-0.8627389699973107,-0.827695003287366
-133.98599243164062,16.06048583984375,19.914751052856445,-2.375905752182007,-7.106019496917725,-6.61400842666626,-2.4595301151275635,1.1634113788604736,-4.042464733123779,0.6333333333333333,-0.032147615743339575,-0.6949523214920683,-0.4788650279778839,-0.7058234013820075,-2.0319658117746435,-1.9366672868014008,-0.3381134403754655,-0.8796720184287661,-0.8438338973440443,0.3180067294319318,0.3025774415784307,19.794631556232932,2.3403167724609375,2.733592987060547,-6.364603042602539,-0.7051630848354018,-2.019422322248732,-1.927562790701862,0.04459123069972058,0.123687795997516,0.023276588728459977,0.0007004162614138257,0.010171346861196504,0.0076183699735081645,-11.887180089950562,-35.19110727310181,-33.10283184051514,-3.525815424177009,-10.097111611243662,-9.63781395350931,-2.3228673934936523,-6.854715347290039,-6.5843377113342285,-0.7041996356805148,-2.006566257148634,-1.9174970627009935,-0.7058234013820075,-2.0319658117746435,-1.9366672868014008,-0.32635379947871895,-0.8459078159964142,-0.8116276889551031,0.009294955113136492,0.026651453009340638,0.025431804376160456,-1.6317689973935947,-4.229539079982071,-4.0581384447755156,-0.31459997547132806,-0.8122508071446408,-0.779497923253975,-0.3381134403754655,-0.8796720184287661,-0.8438338973440443
-134.00979614257812,16.032638549804688,19.928438186645508,-2.4151201248168945,-7.060878753662109,-6.5469584465026855,-1.6050903797149658,0.0909945666790008,-4.071690082550049,0.6416666666666666,-0.05374385741611132,-0.5920874977524226,-0.35995837109836515,-0.7062712668604751,-2.036899874255914,-1.939666939893887,-0.34399903426596945,-0.8966461840475654,-0.8599977885098268,0.25027393398693276,0.30034669457658514,19.72960854633231,5.416889190673828,8.045997619628906,-4.705724716186523,-0.7055774110713939,-2.025489045670189,-1.9319967661404405,0.04300912570283402,0.06988003159316028,0.03870841960903592,0.0005924174487843364,0.009617509251705954,0.006690461507599688,-11.880528926849365,-35.39727067947388,-33.065452575683594,-3.5278870553569694,-10.127445228350943,-9.659983830702203,-2.3228673934936523,-6.966115474700928,-6.5469584465026855,-0.7046493462932194,-2.012675414757085,-1.9229200667562973,-0.7062712668604751,-2.036899874255914,-1.939666939893887,-0.3322336112376472,-0.862786891376999,-0.8277276620062736,0.009299539807420707,0.02673140292411143,0.02548727977340644,-1.661168056188236,-4.313934456884995,-4.138638310031368,-0.3204720533571049,-0.8290231022676166,-0.7955222571436109,-0.34399903426596945,-0.8966461840475654,-0.8599977885098268
-134.0226287841797,16.013736724853516,19.947933197021484,-2.4882702827453613,-7.046331405639648,-6.538493633270264,-0.5390259027481079,-1.07712984085083,-3.7981808185577393,0.65,-0.10854030431578421,-0.5209813526602858,-0.3008785485363923,-0.70717576939644,-2.041241385528083,-1.9421742611316903,-0.34989216567760645,-0.913656528926966,-0.8761825740192575,0.1773897516338438,0.27203046283092686,19.73414764973397,1.7456817626953125,1.015777587890625,-8.778018951416016,-0.706082695692038,-2.0312022398243883,-1.9358476050155193,0.061044082061498264,0.04030328548924736,0.049947910587229805,0.0006746695668906046,0.008525404292906567,0.005614695742343675,-12.023813009262085,-35.4774866104126,-32.97998905181885,-3.53041347846019,-10.156011199121942,-9.679238025077597,-2.3228673934936523,-7.046331405639648,-6.538493633270264,-0.7055555045841463,-2.019729585134425,-1.9280527923490332,-0.70717576939644,-2.041241385528083,-1.9421742611316903,-0.3381176337017475,-0.8797135767088691,-0.8438597253814027,0.009304669014272892,0.02680221444669376,0.025533697211301037,-1.6905881685087376,-4.398567883544345,-4.219298626907014,-0.3263519494924142,-0.8458541821437368,-0.8115893637465195,-0.34989216567760645,-0.913656528926966,-0.8761825740192575
-134.02821350097656,16.002992630004883,19.97282218933105,-2.6046321392059326,-6.794279098510742,-6.382527828216553,0.2087431997060775,-2.26563024520874,-3.4884281158447266,0.6583333333333333,-0.20516871614855736,-0.21527273276282788,-0.09628035889879616,-0.708885508697678,-2.0430353249677733,-1.942976597455847,-0.35579954491675375,-0.9306818233016975,-0.8923740456647229,0.01656229580593076,0.14762245066731836,19.48785781200673,30.24627685546875,18.715896606445312,-13.963422775268555,-0.7067422901841494,-2.035863387791058,-1.9388323660368818,0.1093979586968309,0.13381928861032735,0.09952750440421959,0.0013468453406593704,0.006901062779918952,0.004231390730355022,-12.206795692443848,-35.13303089141846,-32.71877670288086,-3.533711450920747,-10.17931693895529,-9.69416183018441,-2.3228673934936523,-6.794279098510742,-6.382527828216553,-0.7055555045841463,-2.026174542428876,-1.9326767449015851,-0.708885508697678,-2.0430353249677733,-1.942976597455847,-0.3440071527866154,-0.8966791049404611,-0.8600166617650435,0.009315228739907193,0.02685885615831199,0.02556808967783346,-1.7200357639330772,-4.483395524702305,-4.300083308825218,-0.3322315786972821,-0.8627389699973107,-0.827695003287366,-0.35579954491675375,-0.9306818233016975,-0.8923740456647229
-134.04190063476562,16.008495330810547,20.00006484985352,-2.7451059818267822,-6.702855110168457,-6.234707355499268,-0.8970873951911926,-3.755610704421997,-2.315322160720825,0.6666666666666666,-0.3239735742133454,-0.07372037595177439,0.09702970059058114,-0.7115852884827891,-2.043649661434038,-1.9421680166175923,-0.361729422320777,-0.9477122371469812,-0.9085587791365362,-0.1685539489525323,0.12809038713714976,19.36461311132506,10.970878601074219,17.73845672607422,-16.856861114501953,-0.707948246963878,-2.0393584115920906,-1.9407306203800836,0.15036324316338198,0.18092216021949195,0.15341494485493468,0.002346832076119036,0.004903443838561243,0.002590208270080578,-12.629034280776978,-34.71036386489868,-32.31669569015503,-3.53974123481939,-10.196792057960453,-9.703653101900418,-2.375905752182007,-6.702855110168457,-6.234707355499268,-0.7058234013820075,-2.0319658117746435,-1.9366672868014008,-0.7115852884827891,-2.043649661434038,-1.942976597455847,-0.3499067215113144,-0.9136737583703951,-0.8761894169348775,0.00933386418542761,0.02689771929626486,0.025586941700494845,-1.7495336075565722,-4.5683687918519755,-4.380947084674387,-0.3381134403754655,-0.8796720184287661,-0.8438338973440443,-0.361729422320777,-0.9477122371469812,-0.9085587791365362
-134.0526885986328,16.028705596923828,20.03471565246582,-2.8342013359069824,-7.0396409034729,-6.150115489959717,-0.7391499280929565,-5.656826972961426,-1.6022214889526367,0.675,-0.3897113234241014,-0.358909706958781,0.22459582045640758,-0.7148328828446566,-2.0466405756586945,-1.9402963847804555,-0.3676863630111491,-0.9647675752774703,-0.9247279156763732,-0.3000358698661552,0.3958750008894991,19.565327942340666,-40.4142951965332,10.151023864746094,-10.691442489624023,-0.7097501432564078,-2.0422933643689007,-1.9414564399758945,0.17397288965158342,0.1678474757766256,0.17784337845936227,0.003488537458339249,0.003587641576759962,0.001403613718725935,-13.087329864501953,-34.64398527145386,-31.852802753448486,-3.548750716282039,-10.211466821844503,-9.707282199879472,-2.4151201248168945,-6.702855110168457,-6.150115489959717,-0.7062712668604751,-2.036899874255914,-1.939666939893887,-0.7148328828446566,-2.0466405756586945,-1.942976597455847,-0.35582130603845114,-0.9306928697401361,-0.8923682206013434,0.009362247377076194,0.02692655873556804,0.025588591764853025,-1.7791065301922557,-4.65346434870068,-4.461841103006717,-0.34399903426596945,-0.8966461840475654,-0.8599977885098268,-0.3676863630111491,-0.9647675752774703,-0.9247279156763732
-134.04161071777344,16.062435150146484,20.07794570922852,-2.877453327178955,-7.139320373535156,-6.198371410369873,1.5423614978790283,-7.434904098510742,-1.1622077226638794,0.6833333333333333,-0.4087521311425921,-0.40392615067786863,0.21847308274130128,-0.7182391506041782,-2.0500066269143433,-1.9384757757576114,-0.37367168926618394,-0.9818509638350897,-0.9408818804743534,-0.31787701291126685,0.4241611636134541,19.67856031541089,-11.961536407470703,-5.79071044921875,-5.190238952636719,-0.7121437200051484,-2.0449147149005866,-1.9412182071486392,0.16199185896346277,0.18596705056913357,0.15870047817525507,0.004471973582902164,0.003447171985098044,0.0018220043993033997,-13.549663066864014,-34.722426891326904,-31.504215717315674,-3.560718600025742,-10.224573574502934,-9.706091035743196,-2.4882702827453613,-6.702855110168457,-6.150115489959717,-0.70717576939644,-2.041241385528083,-1.9384757757576114,-0.7182391506041782,-2.0500066269143433,-1.942976597455847,-0.361755837038494,-0.947733825697641,-0.9085450389942485,0.009399248432194427,0.02695441126425942,0.02557531606808907,-1.8087791851924702,-4.738669128488205,-4.542725194971243,-0.34989216567760645,-0.913656528926966,-0.8761825740192575,-0.37367168926618394,-0.9818509638350897,-0.9408818804743534
-134.0181121826172,16.107397079467773,20.13010025024414,-2.780210494995117,-7.006251335144043,-6.266203880310059,2.78590726852417,-9.16906452178955,-0.8663119077682495,0.6916666666666667,-0.28802436254720565,-0.21711861623399642,0.1932246257558381,-0.7206393536254049,-2.0518159487162935,-1.9368655705429794,-0.3796770172130623,-0.9989494300743922,-0.9570224268955448,-0.18592471251913853,0.3178183133908904,19.605246947282623,15.968284606933594,-8.139896392822266,11.669139862060547,-0.7148364368509414,-2.0470296275382287,-1.940156469030897,0.10455192944441195,0.18128438523254073,0.08751735317211726,0.004775872386425019,0.0038503694938033803,0.0025334643856499512,-13.84160327911377,-34.6823468208313,-31.23192596435547,-3.574182184254707,-10.235148137691143,-9.700782345154485,-2.6046321392059326,-6.702855110168457,-6.150115489959717,-0.708885508697678,-2.0430353249677733,-1.9368655705429794,-0.7206393536254049,-2.0518159487162935,-1.942976597455847,-0.3677128073455852,-0.9647924059271261,-0.9247130095695061,0.009438988410481346,0.026985928396396252,0.025554347985195434,-1.8385640367279261,-4.823962029635631,-4.6235650478475305,-0.35579954491675375,-0.9306818233016975,-0.8923740456647229,-0.3796770172130623,-0.9989494300743922,-0.9570224268955448
-133.9868621826172,16.159183502197266,20.187822341918945,-2.669031858444214,-7.085940837860107,-6.405367374420166,3.470127582550049,-10.140753746032717,-0.7563116550445557,0.7,-0.1553843348372972,-0.24415638673601237,0.09785799745241341,-0.7219342230823823,-2.0538505852724267,-1.936050087230876,-0.3856931357387488,-1.016064851618329,-0.9731561776224688,-0.020212947111359,0.3255048437627211,19.722449639407312,-9.562740325927734,-16.69961929321289,13.341436386108398,-0.7174461797278823,-2.0491926795991593,-1.938771166985903,0.08055944055054089,0.17070914524237168,0.09653151861199331,0.004246971341110871,0.00407671501490893,0.002499385201827249,-13.90600299835205,-34.974008560180664,-31.254765510559082,-3.5872308986394112,-10.245963397995796,-9.693855834929515,-2.669031858444214,-6.702855110168457,-6.150115489959717,-0.7115852884827891,-2.043649661434038,-1.936050087230876,-0.7219342230823823,-2.0538505852724267,-1.9421680166175923,-0.37369152550998425,-0.9818690115904525,-0.9408694359610553,0.009473898904807264,0.027019626481824013,0.025533704096932328,-1.8684576275499212,-4.909345057952263,-4.704347179805277,-0.361729422320777,-0.9477122371469812,-0.9085587791365362,-0.3856931357387488,-1.016064851618329,-0.9731561776224688
-133.94773864746094,16.21196746826172,20.24824333190918,-2.5837388038635254,-7.198324680328369,-6.606439590454102,4.370185375213623,-10.505090713500977,-0.844373345375061,0.7083333333333334,-0.050536108698873594,-0.30289675716538067,-0.057091813568233896,-0.7223553573215395,-2.0563747249154716,-1.9365258523439446,-0.3917127637164283,-1.0332013076592914,-0.9892938930586683,0.14801815615736566,0.3095493132434968,19.910440501307466,-13.486061096191406,-24.128665924072266,10.235166549682617,-0.7196001934956323,-2.051737692295446,-1.9376427341311733,0.12087158473820703,0.07690450306554424,0.18421664185964431,0.0031103924266011698,0.0037064031646776366,0.0017409589621372298,-13.744635820388794,-35.469478130340576,-31.626497745513916,-3.5980009674781614,-10.25868846147723,-9.688213670655866,-2.5837388038635254,-7.006251335144043,-6.150115489959717,-0.7148328828446566,-2.0466405756586945,-1.936050087230876,-0.7223553573215395,-2.0563747249154716,-1.9402963847804555,-0.3796881937891145,-0.9989668256929146,-0.9570164587454817,0.009498578885398607,0.027050341979234727,0.025520569921151676,-1.8984409689455726,-4.994834128464573,-4.785082293727409,-0.3676863630111491,-0.9647675752774703,-0.9247279156763732,-0.3917127637164283,-1.0332013076592914,-0.9892938930586683
-133.9016571044922,16.25975227355957,20.309097290039062,-2.410604953765869,-7.081043243408203,-6.732179164886475,5.137511253356934,-10.06452465057373,-1.3374217748641968,0.7166666666666667,0.1397396021957107,-0.13265155484811864,-0.13451749499328614,-0.7211908606365753,-2.057480154539206,-1.9376468314688886,-0.39772268755506646,-1.0503469756137849,-1.0054409499875758,0.3746196745012908,0.20199360047681716,19.864515634833538,14.073772430419922,-15.088748931884766,20.77606201171875,-0.720871789054016,-2.053905608071548,-1.9371128234688602,0.18009942712641955,0.07165191629112674,0.22519160029893,0.0016137192274129652,0.0031002289523325666,0.0009588901007107302,-13.32103943824768,-35.51088047027588,-32.208561420440674,-3.6043589452700804,-10.269528040357741,-9.6855641173443,-2.410604953765869,-7.006251335144043,-6.198371410369873,-0.7182391506041782,-2.0500066269143433,-1.936050087230876,-0.7223553573215395,-2.057480154539206,-1.9384757757576114,-0.38569545869789795,-1.0160827057601776,-0.9731590656077224,0.009508612784185504,0.02707604258981751,0.025517937384256065,-1.9284772934894898,-5.080413528800888,-4.865795328038612,-0.37367168926618394,-0.9818509638350897,-0.9408818804743534,-0.39772268755506646,-1.0503469756137849,-1.0054409499875758
-133.86038208007812,16.297513961791992,20.3632755279541,-2.304596424102783,-7.0638861656188965,-6.84750509262085,4.823122978210449,-8.733250617980957,-1.624839186668396,0.725,0.26032184311536044,-0.06429888868312883,-0.20008114866226645,-0.7190215119439474,-2.0580159786115653,-1.9393141743744076,-0.4037145334879327,-1.0674971087688812,-1.0216019014406958,0.5293311382068666,0.1509576591088898,19.89935076025999,2.058849334716797,-13.839111328125,12.721023559570312,-0.7210282613219698,-2.0555074784109926,-1.9372805031922193,0.19232589240583134,0.06979316873724198,0.2366554153876113,0.0013025629834076183,0.0026128924211287785,0.0012772632188369926,-12.748182535171509,-35.43544626235962,-32.85769510269165,-3.605141306609849,-10.277537392054963,-9.686402515961097,-2.304596424102783,-7.006251335144043,-6.266203880310059,-0.7190215119439474,-2.0518159487162935,-1.936050087230876,-0.7223553573215395,-2.0580159786115653,-1.9393141743744076,-0.3917040275422477,-1.033211934746936,-0.9893030698009907,0.009503373025848555,0.027097161209313443,0.025526495156173216,-1.9585201377112385,-5.166059673734679,-4.946515349004954,-0.3796770172130623,-0.9989494300743922,-0.9570224268955448,-0.4037145334879327,-1.0674971087688812,-1.0216019014406958
-133.8214874267578,16.325597763061523,20.41411781311035,-2.24704909324646,-6.961539268493652,-6.787789821624756,4.5995869636535645,-7.59423828125,-2.230078220367432,0.7333333333333333,0.33087114905276627,0.08761501029753216,-0.09073326300201945,-0.7162642523685077,-2.0572858535257526,-1.9400702848994245,-0.40968340225767025,-1.0846411575482624,-1.0377691538148577,0.567255684300802,0.12882245506170054,19.772327792262804,12.281627655029297,7.16583251953125,6.905679702758789,-0.7201532410705904,-2.0566014593728843,-1.9379214460635084,0.17993023547651799,0.08413165490430131,0.1754619793616316,0.0025250203570258423,0.0016477319301552813,0.001737978665716145,-12.215021133422852,-35.39073419570923,-33.37928104400635,-3.600766205352952,-10.283007296864422,-9.689607230317542,-2.24704909324646,-6.961539268493652,-6.405367374420166,-0.7162642523685077,-2.0538505852724267,-1.936050087230876,-0.7223553573215395,-2.0580159786115653,-1.9400702848994245,-0.39770530455116926,-1.0503502802417097,-1.0054524151848532,0.009484048508995233,0.02710837454752373,0.025540763650713318,-1.9885265227558464,-5.251751401208549,-5.027262075924266,-0.3856931357387488,-1.016064851618329,-0.9731561776224688,-0.40968340225767025,-1.0846411575482624,-1.0377691538148577
-133.78677368164062,16.348556518554688,20.462268829345703,-2.279379844665528,-6.871255397796631,-6.702331066131592,4.235813140869141,-7.005723476409912,-2.414192676544189,0.7416666666666667,0.3111506349848705,0.22523284944201993,0.04253439898143441,-0.7136713304103004,-2.0554089131137356,-1.9397158315745793,-0.4156306633444228,-1.1017695651575434,-1.0539334524113124,0.5113566339308895,0.10136188710531659,19.661863026799896,10.834064483642578,10.255050659179688,-3.8796901702881392,-0.7185006625361741,-2.056913124941146,-1.938654594932249,0.1367646411343457,0.12433613300100749,0.09089395815020349,0.0035598841636061036,0.0010282586233597332,0.001509352388701954,-11.825369119644165,-35.17604875564575,-33.67624473571777,-3.5925033126808703,-10.284565624705731,-9.693272974661244,-2.24704909324646,-6.871255397796631,-6.606439590454102,-0.7136713304103004,-2.0554089131137356,-1.9365258523439446,-0.7223553573215395,-2.0580159786115653,-1.9400702848994245,-0.4036928100723041,-1.0674912229495526,-1.021607870142622,0.009454679806114382,0.02710557388819834,0.02555236200848782,-2.0184640503615205,-5.337456114747763,-5.108039350713111,-0.3917127637164283,-1.0332013076592914,-0.9892938930586683,-0.4156306633444228,-1.1017695651575434,-1.0539334524113124
-133.74850463867188,16.36918067932129,20.50791358947754,-2.391453742980957,-6.902610301971436,-6.597055435180664,4.695870876312256,-6.544564723968506,-2.451563835144043,0.75,0.21272919303092985,0.2401244491636838,0.19342503051386295,-0.7118985871350426,-2.0534078760373715,-1.938103956320297,-0.42156315157054813,-1.1188812974578548,-1.0700843187139815,0.3686358625386462,0.14591507508870585,19.645092108987026,-3.762588500976669,12.633075714111328,-13.44886779785151,-0.7164093084988747,-2.056319755165526,-1.9389702157275195,0.07124795788312234,0.09397423976073885,0.09425342224117303,0.003793119435255206,0.001901691353948237,0.0010471573395141656,-11.633084058761597,-34.88033437728882,-33.666860580444336,-3.5820465424943735,-10.28159877582763,-9.694851078637598,-2.24704909324646,-6.871255397796631,-6.597055435180664,-0.7118985871350426,-2.0534078760373715,-1.9376468314688886,-0.7211908606365753,-2.0580159786115653,-1.9400702848994245,-0.409662887643128,-1.0846272209092653,-1.0377659552736846,0.009423140990551498,0.0270914095250391,0.025554095525215113,-2.04831443821564,-5.423136104546327,-5.188829776368423,-0.39772268755506646,-1.0503469756137849,-1.0054409499875758,-0.42156315157054813,-1.1188812974578548,-1.0700843187139815
-133.70240783691406,16.390073776245117,20.5517520904541,-2.5522613525390625,-6.920021057128906,-6.490788459777832,5.744068622589111,-6.478672504425049,-2.237851858139038,0.7583333333333333,0.0676909870747,0.2687892666492173,0.34295490212557045,-0.7113344955760867,-2.0511679654819615,-1.935245998802584,-0.4274909390336822,-1.1359743638368711,-1.086211368704003,0.1828597071887602,0.16327797468883298,19.63196349529082,-2.089290618896378,12.752037048339844,-19.296913146972656,-0.714438035486777,-2.0550573173540774,-1.9384900491942585,0.12263077686224844,0.07459909179019564,0.14381093759758065,0.0032020274481597633,0.002814755056887549,0.001959068674425675,-11.77474045753479,-34.71931219100952,-33.42546987533569,-3.572190177433885,-10.275286586770386,-9.692450245971292,-2.24704909324646,-6.871255397796631,-6.490788459777832,-0.7113344955760867,-2.0511679654819615,-1.935245998802584,-0.7190215119439474,-2.0580159786115653,-1.9400702848994245,-0.4156165379388512,-1.1017526985538826,-1.05392003901697,0.00939712221286022,0.027068255516110577,0.025540786989682734,-2.078082689694256,-5.508763492769413,-5.26960019508485,-0.4037145334879327,-1.0674971087688812,-1.0216019014406958,-0.4274909390336822,-1.1359743638368711,-1.086211368704003
-133.65626525878906,16.413053512573242,20.59596824645996,-2.69671630859375,-6.828858375549316,-6.428531169891357,5.685515403747559,-6.622701168060303,-2.125379800796509,0.7666666666666666,-0.05862270021061944,0.40482327354163594,0.44650464137715584,-0.7118230180778419,-2.0477944382024478,-1.9315251267911078,-0.4334227975176642,-1.1530393174885583,-1.1023074114272622,0.03689546708562931,0.08134047822180594,19.568259118086658,10.939521789550781,7.470874786376953,-17.3345947265625,-0.7129983367135558,-2.0530130092722536,-1.9369322396775985,0.18952035034067924,0.050081745292627974,0.14753441581537324,0.0020296746009278934,0.003701051998711645,0.003572425982538268,-12.166860342025757,-34.48428440093994,-33.0064959526062,-3.5649916835677793,-10.265065046361268,-9.684661198387992,-2.24704909324646,-6.828858375549316,-6.428531169891357,-0.7113344955760867,-2.0477944382024478,-1.9315251267911078,-0.7162642523685077,-2.0572858535257526,-1.9400702848994245,-0.4215581907447975,-1.118861140297818,-1.0700611410142833,0.009382331845549746,0.02703765791653386,0.025512384855910432,-2.1077909537239874,-5.594305701489089,-5.350305705071417,-0.40968340225767025,-1.0846411575482624,-1.0377691538148577,-0.4334227975176642,-1.1530393174885583,-1.1023074114272622
-133.61669921875,16.43688201904297,20.6409854888916,-2.7312562465667725,-7.028552055358887,-6.491761684417725,4.915231227874756,-6.818996906280518,-2.0657882690429688,0.775,-0.07373519847119514,0.2503434751503617,0.4240416298811551,-0.7124374780651018,-2.0457082425761945,-1.9279914465420982,-0.43935977650154007,-1.1700868861766933,-1.118374006815113,0.029330333546964172,0.1699102065643553,19.75854485338499,-23.963241577148438,-7.5876617431640625,-4.144792556762695,-0.7122329818528748,-2.050697487082342,-1.9345164720061334,0.19416440960867404,0.07465653007591226,0.10811890855705013,0.0008941242904450598,0.003971314234545275,0.004794780924817995,-12.65106749534607,-34.551297187805176,-32.71046781539917,-3.561164909264374,-10.25348743541171,-9.672582360030667,-2.279379844665528,-6.828858375549316,-6.428531169891357,-0.7113344955760867,-2.0457082425761945,-1.9279914465420982,-0.7136713304103004,-2.0554089131137356,-1.9397158315745793,-0.4274934655935715,-1.1359502860235042,-1.0861821116143342,0.009378979417136505,0.02700469910841734,0.025472824849763508,-2.1374673279678573,-5.679751430117521,-5.4309105580716714,-0.4156306633444228,-1.1017695651575434,-1.0539334524113124,-0.43935977650154007,-1.1700868861766933,-1.118374006815113
-133.5752410888672,16.46062469482422,20.68678855895996,-2.7471508979797363,-7.139913082122803,-6.623092651367188,5.064946174621582,-6.81935453414917,-2.176544189453125,0.7833333333333333,-0.07001214999072536,0.18624338836579923,0.3345897767230417,-0.7130209126483579,-2.044156214339813,-1.9252031984027396,-0.4453016174402764,-1.1871215212961919,-1.1344173668018025,0.07314240893452008,0.15947879235919477,19.92730052177636,-13.363323211669922,-15.759716033935653,-1.907358169555664,-0.7121028983004861,-2.0484469473275575,-1.9316139453717653,0.15098148316561638,0.1215303264672658,0.08122167690111502,0.0006452156034745565,0.003819404891522609,0.005233070739098604,-13.118838548660278,-34.81995487213135,-32.631229400634766,-3.5605144915024307,-10.242234736637787,-9.658069726858827,-2.391453742980957,-6.828858375549316,-6.428531169891357,-0.7113344955760867,-2.044156214339813,-1.9252031984027396,-0.7130209126483579,-2.0534078760373715,-1.938103956320297,-0.4334276564127422,-1.153020677251234,-1.1022788944924324,0.009383391061198672,0.026973122978355593,0.025429269311127052,-2.167138282063711,-5.765103386256169,-5.511394472462162,-0.42156315157054813,-1.1188812974578548,-1.0700843187139815,-0.4453016174402764,-1.1871215212961919,-1.1344173668018025
-133.5338897705078,16.47831153869629,20.7375431060791,-2.6851747035980225,-7.162483215332031,-6.743617534637451,4.928550720214844,-6.794534683227539,-3.04599404335022,0.7916666666666666,0.01095566652254032,0.21146853011430977,0.2575285331091237,-0.7129296154273367,-2.0423939765888606,-1.9230571272934969,-0.45124269756883756,-1.204141471101099,-1.1504428428625817,0.18581059745172618,0.11793340785420725,20.005061185957246,-2.708415985107422,-14.462985992431534,7.437143325805664,-0.7123091039589451,-2.0462441674378558,-1.928604579566405,0.07701991989482103,0.14248094393114363,0.12681501931238975,0.0007235894878085485,0.0033955065818239644,0.0048825607574779556,-13.412559509277344,-35.07982778549194,-32.77779150009155,-3.5615455197947252,-10.231220837189278,-9.643022897832026,-2.5522613525390625,-6.828858375549316,-6.428531169891357,-0.7113344955760867,-2.0423939765888606,-1.9230571272934969,-0.7130209126483579,-2.0511679654819615,-1.935245998802584,-0.4393635656124001,-1.1700727119798826,-1.1183505993221525,0.009389172452079453,0.026945205148832307,0.025388814875704057,-2.1968178280620005,-5.850363559899413,-5.591752996610762,-0.4274909390336822,-1.1359743638368711,-1.086211368704003,-0.45124269756883756,-1.204141471101099,-1.1504428428625817
