Euler_X,Euler_Y,Euler_Z,Acc_X,Acc_Y,Acc_Z,Gyr_X,Gyr_Y,Gyr_Z,time_seconds,filtered_accel_x,filtered_accel_y,filtered_accel_z,Vel_X,Vel_Y,Vel_Z,Displacement_X,Displacement_Y,Displacement_Z,Acc_Global_X,Acc_Global_Y,Acc_Global_Z,Dy_dt,Dz_dt,Dx_dt,Vel_X_Roll_Mean,Vel_Y_Roll_Mean,Vel_Z_Roll_Mean,Acc_Global_X_Roll_Std,Acc_Global_Y_Roll_Std,Acc_Global_Z_Roll_Std,Vel_X_Roll_Std,Vel_Y_Roll_Std,Vel_Z_Roll_Std,Acc_Global_X_Roll_Sum,Acc_Global_Y_Roll_Sum,Acc_Global_Z_Roll_Sum,Vel_X_Roll_Sum,Vel_Y_Roll_Sum,Vel_Z_Roll_Sum,Acc_Global_X_Roll_Max,Acc_Global_Y_Roll_Max,Acc_Global_Z_Roll_Max,Vel_X_Roll_Max,Vel_Y_Roll_Max,Vel_Z_Roll_Max,Vel_X_Roll_Min,Vel_Y_Roll_Min,Vel_Z_Roll_Min,Displacement_X_Roll_Mean,Displacement_Y_Roll_Mean,Displacement_Z_Roll_Mean,Displacement_X_Roll_Std,Displacement_Y_Roll_Std,Displacement_Z_Roll_Std,Displacement_X_Roll_Sum,Displacement_Y_Roll_Sum,Displacement_Z_Roll_Sum,Displacement_X_Roll_Max,Displacement_Y_Roll_Max,Displacement_Z_Roll_Max,Displacement_X_Roll_Min,Displacement_Y_Roll_Min,Displacement_Z_Roll_Min
-133.72169494628906,15.148571014404297,22.179311752319336,-2.5356476306915283,-7.861167430877685,-7.063099384307861,-2.0508806705474854,5.923715114593506,-13.944366455078123,0.0,-2.5142563197617025,-7.79484880097426,-7.003513441360108,0.0,0.0,0.0,0.0,0.0,0.0,0.165566458875085,0.42251907460661625,20.668586490663632,,,,,,,,,,,,,,,,,,,,,,,,,,,,,,,,,,,,,,,,,,
-133.7269744873047,15.024134635925291,22.214916229248047,-2.4927895069122314,-7.7525506019592285,-7.045833110809326,-0.05727344378829,6.404675006866455,-14.372304916381836,0.008333333333333333,-2.4291581812181455,-7.555072318794529,-6.86772525175212,-0.020242984843484545,-0.0629589359899544,-0.057231043764600996,-0.0001686915403623712,-0.0005246577999162867,-0.0004769253647050083,0.18338361306347412,0.36343654845110684,20.570766186141064,13.034019470214737,2.0719528198242188,5.142974853515625,,,,,,,,,,,,,,,,,,,,,,,,,,,,,,,,,,,,,,,
-133.74049377441406,14.898193359375,22.25654411315918,-2.401667356491089,-7.762441635131836,-6.917603969573975,-1.2672773599624634,5.924087047576904,-14.866569519042969,0.016666666666666666,-2.297284388335425,-7.4357484567108205,-6.623206368069767,-0.03938702141294642,-0.12492350646254458,-0.11242443016518239,-0.0004969167188035913,-0.0015656870204374916,-0.001413795616081528,0.18470102984903397,0.474376584028861,20.469155843500296,-1.1869239807128906,15.387496948242188,10.93465805053711,,,,,,,,,,,,,,,,,,,,,,,,,,,,,,,,,,,,,,,
-133.7559814453125,14.778427124023438,22.307640075683597,-2.417267322540283,-7.999475479125977,-6.862994194030762,-1.7422038316726685,4.717336177825928,-15.207686424255373,0.025,-2.273116474471305,-7.5425832953324905,-6.4548384056692925,-0.058329658700207294,-0.187778367256982,-0.1662147502124265,-0.0009829972079719853,-0.003130506747579008,-0.0027989185345184157,0.10291299961767973,0.6640202912720559,20.60277371783303,-28.444061279296875,6.553173065185547,-1.8719959259033203,,,,,,,,,,,,,,,,,,,,,,,,,,,,,,,,,,,,,,,
-133.75746154785156,14.657039642333984,22.381851196289062,-2.4105396270751958,-7.948530673980713,-6.941123962402344,-0.7945537567138672,2.816042423248291,-17.086490631103516,0.03333333333333333,-2.226885476825192,-7.360980456370899,-6.419982399855112,-0.07688703767375056,-0.24911987106007283,-0.2197146035445524,-0.0016237225219199068,-0.005206505673079615,-0.0046298735640563525,0.12575779027935885,0.5750758454588657,20.61844650171809,6.113376617431641,-9.375572204589844,0.8073234558104936,-0.03896934052607777,-0.12495613615391074,-0.11111696553735247,0.05941071870915625,0.10981650914272645,0.08569235581372743,0.030339883125589894,0.0985151709661975,0.08672023252408424,-12.257911443710327,-39.32416582107544,-34.83065462112427,-0.19484670263038883,-0.6247806807695537,-0.5555848276867623,-2.401667356491089,-7.7525506019592285,-6.862994194030762,0.0,0.0,0.0,-0.07688703767375056,-0.24911987106007283,-0.2197146035445524,-0.0006544655978115709,-0.00208547144820248,-0.0018639026158722607,0.0006588845321246989,0.0021147375526935127,0.001879181019905457,-0.0032723279890578545,-0.010427357241012401,-0.009319513079361304,0.0,0.0,0.0,-0.0016237225219199068,-0.005206505673079615,-0.0046298735640563525
-133.754150390625,14.537711143493652,22.474123001098636,-2.343235969543457,-7.714277744293213,-7.035923480987549,-0.7100523114204407,1.2248857021331787,-18.47798538208008,0.041666666666666664,-2.1210413353362516,-6.999593788004013,-6.401304673515577,-0.09456238213488599,-0.3074498192934396,-0.2730588091571822,-0.0024117423730439565,-0.007768587500524945,-0.006905363640366204,0.2285329109245851,0.3680989908488474,20.501928310502844,28.1103515625,-11.37594223022461,8.076438903808647,-0.057881816953054964,-0.18644610001259868,-0.1657287273687889,0.05335266555620383,0.12901244473223533,0.07857024271945304,0.029434681854804603,0.09696105634299632,0.08521671336835498,-12.065499782562256,-39.17727613449097,-34.803478717803955,-0.2894090847652748,-0.9322305000629934,-0.8286436368439445,-2.343235969543457,-7.714277744293213,-6.862994194030762,-0.020242984843484545,-0.0629589359899544,-0.057231043764600996,-0.09456238213488599,-0.3074498192934396,-0.2730588091571822,-0.0011368140724203623,-0.003639188948307469,-0.003244975343945502,0.000899014946755318,0.002905464085964738,0.0025753966743586026,-0.0056840703621018115,-0.018195944741537344,-0.01622487671972751,-0.0001686915403623712,-0.0005246577999162867,-0.0004769253647050083,-0.0024117423730439565,-0.007768587500524945,-0.006905363640366204
-133.7506103515625,14.416391372680664,22.57195281982422,-2.290219306945801,-7.628654956817627,-7.209893703460693,-0.8645062446594238,0.8188487887382507,-18.98786163330078,0.05,-2.03083044092548,-6.790627847050425,-6.460504891770846,-0.11148596914259833,-0.3640383846855265,-0.3268963499219393,-0.0033407921158989428,-0.010802240706237667,-0.009629499889715698,0.33906593467738677,0.21378331970760403,20.546078386610436,10.274734497070312,-20.876426696777344,6.36199951171875,-0.07613041381287773,-0.2466619897517131,-0.21966178860025654,0.05460842448726075,0.15763882157900252,0.13616277801588517,0.028536244480484318,0.09455945061207219,0.0847156017097671,-11.862929582595825,-39.053380489349365,-34.96753931045532,-0.38065206906438864,-1.2333099487585655,-1.0983089430012827,-2.290219306945801,-7.628654956817627,-6.862994194030762,-0.03938702141294642,-0.12492350646254458,-0.11242443016518239,-0.11148596914259833,-0.3640383846855265,-0.3268963499219393,-0.0017712341875276763,-0.0056947055295717445,-0.00507549024894764,0.0011336583551440084,0.0036827350689585914,0.003274018976043943,-0.008856170937638382,-0.028473527647858723,-0.025377451244738197,-0.0004969167188035913,-0.0015656870204374916,-0.001413795616081528,-0.0033407921158989428,-0.010802240706237667,-0.009629499889715698
-133.74453735351562,14.284978866577148,22.670726776123047,-2.20166015625,-7.450362205505371,-7.353277206420898,-0.5284731388092041,1.6692932844161987,-20.05019187927246,0.058333333333333334,-1.9065922847530499,-6.492281822869163,-6.4874298041950995,-0.12737423818220708,-0.41814073320943623,-0.38095826495689844,-0.004402244100750669,-0.014286746816316302,-0.012804152097689852,0.47628260729888233,0.02477220955143796,20.496366610168735,21.395130157470703,-17.20602035522461,10.627098083496094,-0.09372785716672985,-0.3053054351010914,-0.27336855555859974,0.08985770618458262,0.22771737737341288,0.1999197056491371,0.02731653155224442,0.09104311002526842,0.0848550983258207,-11.662922382354736,-38.7413010597229,-35.403212547302246,-0.4686392858336493,-1.526527175505457,-1.3668427777929988,-2.20166015625,-7.450362205505371,-6.862994194030762,-0.058329658700207294,-0.187778367256982,-0.1662147502124265,-0.12737423818220708,-0.41814073320943623,-0.38095826495689844,-0.002552299663917092,-0.008238917488747508,-0.007353561545269305,0.0013591115503423965,0.0044345083580605285,0.00397658657815352,-0.01276149831958546,-0.04119458744373754,-0.036767807726346524,-0.0009829972079719853,-0.003130506747579008,-0.0027989185345184157,-0.004402244100750669,-0.014286746816316302,-0.012804152097689852
-133.75103759765625,14.142189025878906,22.7615966796875,-2.092813730239868,-7.455382347106934,-7.403348922729492,-1.8110551834106443,3.176845073699951,-20.297163009643555,0.06666666666666667,-1.7640412634192235,-6.379749409950557,-6.420417004092803,-0.14207458204403395,-0.4713053116256909,-0.4344617399910051,-0.005586198951117618,-0.018214291079863727,-0.016424666597614896,0.5698248732537898,0.03062053421284811,20.5079686164907,-0.6024169921875,-6.00860595703125,13.06157112121582,-0.1104768418354952,-0.3620108239748332,-0.3270179535143155,0.12405888628137045,0.20668918804335246,0.19889918816923582,0.025819094187697574,0.08777988554593459,0.08496960840926063,-11.338468790054321,-38.19720792770386,-35.94356727600098,-0.552384209177476,-1.810054119874166,-1.6350897675715774,-2.092813730239868,-7.450362205505371,-6.941123962402344,-0.07688703767375056,-0.24911987106007283,-0.2197146035445524,-0.14207458204403395,-0.4713053116256909,-0.4344617399910051,-0.003472940012546219,-0.011255674355204451,-0.0100787111578886,0.0015726314137550772,0.00516157838107958,0.004681370929378358,-0.017364700062731095,-0.056278371776022254,-0.050393555789443004,-0.0016237225219199068,-0.005206505673079615,-0.0046298735640563525,-0.005586198951117618,-0.018214291079863727,-0.016424666597614896
-133.76226806640625,13.995445251464844,22.849328994750977,-2.051459550857544,-7.530290603637695,-7.390616416931152,-2.225570678710937,3.858696222305298,-20.50289535522461,0.075,-1.6905429300367625,-6.337451879497291,-6.2912995628062,-0.1561624397943403,-0.5241174106215016,-0.48688923634772346,-0.006887552616070454,-0.02258193616837624,-0.02048207690051259,0.5671178454088699,0.09880898280189566,20.5432934377379,-8.988990783691406,1.5279006958007812,4.962501525878906,-0.12633192225961315,-0.417010331887119,-0.3804528800749497,0.12462646074237413,0.11431819932292756,0.15596402140693583,0.02433353416403704,0.08548491395721933,0.08462815531821632,-10.97938871383667,-37.77896785736084,-36.393059730529785,-0.6316596112980657,-2.085051659435595,-1.9022644003747486,-2.051459550857544,-7.450362205505371,-7.035923480987549,-0.09456238213488599,-0.3074498192934396,-0.2730588091571822,-0.1561624397943403,-0.5241174106215016,-0.48688923634772346,-0.004525706031376328,-0.014730760454263775,-0.013249151825179847,0.0017741949376131466,0.005871077700738793,0.005383833500408587,-0.02262853015688164,-0.07365380227131887,-0.06624575912589924,-0.0024117423730439565,-0.007768587500524945,-0.006905363640366204,-0.006887552616070454,-0.02258193616837624,-0.02048207690051259
-133.77244567871094,13.848283767700195,22.93523406982422,-1.9860937595367432,-7.465481758117676,-7.499567985534668,-2.055517196655273,3.952700614929199,-20.282793045043945,0.08333333333333333,-1.5942143262379829,-6.156373381113965,-6.284066327134445,-0.16944755917965681,-0.5754205221307847,-0.5392564557405105,-0.00829961560923426,-0.02737710718613278,-0.02497588069835018,0.6537304334508077,0.0042968861056747005,20.55681926568346,7.777061462402344,-13.074188232421875,7.843894958496094,-0.14130895766856727,-0.470604472454588,-0.4336924093916153,0.12135874490171242,0.07571939123325763,0.10515433756250518,0.02289421356330288,0.08360518075231525,0.0839055279121005,-10.622246503829956,-37.5301718711853,-36.856704235076904,-0.7065447883428364,-2.35302236227294,-2.1684620469580764,-1.9860937595367432,-7.450362205505371,-7.209893703460693,-0.11148596914259833,-0.3640383846855265,-0.3268963499219393,-0.16944755917965681,-0.5754205221307847,-0.5392564557405105,-0.005703280678614389,-0.01865246439138534,-0.01686325523677664,0.001964129044297822,0.006565775621454724,0.006080839926008879,-0.028516403393071946,-0.09326232195692671,-0.08431627618388321,-0.0033407921158989428,-0.010802240706237667,-0.009629499889715698,-0.00829961560923426,-0.02737710718613278,-0.02497588069835018
-133.78713989257812,13.691553115844728,23.00986862182617,-1.8800890445709229,-7.360154151916504,-7.650229454040527,-2.2152223587036133,5.789575099945068,-20.31432342529297,0.09166666666666666,-1.4589644259616685,-5.937228042873918,-6.317366175274603,-0.1816055960626707,-0.6248974224880673,-0.5919011738677988,-0.009812995576423183,-0.032584585706866676,-0.029908390480581835,0.7975676200297632,-0.12816814485627992,20.56081733976923,12.639312744140625,-18.079376220703125,12.720565795898438,-0.15533288305258178,-0.5227762800150961,-0.48669337418078734,0.11989855429925302,0.06074619407898706,0.11954528341966773,0.021492068677139445,0.08185322357959732,0.0832761279610607,-10.212116241455078,-37.26167106628418,-37.29703998565674,-0.7766644152629089,-2.613881400075481,-2.4334668709039367,-1.8800890445709229,-7.360154151916504,-7.353277206420898,-0.12737423818220708,-0.41814073320943623,-0.38095826495689844,-0.1816055960626707,-0.6248974224880673,-0.5919011738677988,-0.006997721370719237,-0.023008933391511145,-0.020919033354949868,0.0021425296039986807,0.007246059614409527,0.006773258322472028,-0.034988606853596185,-0.11504466695755573,-0.10459516677474934,-0.004402244100750669,-0.014286746816316302,-0.012804152097689852,-0.009812995576423183,-0.032584585706866676,-0.029908390480581835
-133.80882263183594,13.520306587219238,23.05986213684082,-1.8271806240081787,-7.094165325164795,-7.6518096923828125,-2.3652961254119877,8.976471900939941,-19.477069854736328,0.1,-1.3784096615258423,-5.561553026280572,-6.20132691679601,-0.19309234324205274,-0.6712436977070722,-0.6435788981744323,-0.011422098436773623,-0.03817828318775894,-0.03527154796536877,0.845420402205906,-0.3041474360731701,20.36503296738713,31.918659210205078,-0.18962860107421875,6.349010467529297,-0.1684765040645509,-0.5733968729146233,-0.539217500824294,0.1122816366669295,0.17151255088912107,0.12756825400099256,0.020173951077891557,0.0791857865636127,0.08273283639312297,-9.837636709213257,-36.9054741859436,-37.59557247161865,-0.8423825203227545,-2.8669843645731166,-2.69608750412147,-1.8271806240081787,-7.094165325164795,-7.390616416931152,-0.14207458204403395,-0.4713053116256909,-0.4344617399910051,-0.19309234324205274,-0.6712436977070722,-0.6435788981744323,-0.008401692237923827,-0.027787240665799674,-0.025412512528485653,0.0023100146969203166,0.007904002977813324,0.007461479672618649,-0.04200846118961914,-0.13893620332899836,-0.12706256264242827,-0.005586198951117618,-0.018214291079863727,-0.016424666597614896,-0.011422098436773623,-0.03817828318775894,-0.03527154796536877
-133.85630798339844,13.353592872619627,23.082077026367188,-1.7759556770324707,-6.940495014190674,-7.472525596618652,-4.635217666625977,11.038074493408203,-16.9398136138916,0.10833333333333334,-1.3006623431937203,-5.302704035563649,-5.906954329544373,-0.20393119610200042,-0.7154328980034359,-0.6928035175873021,-0.01312152507095696,-0.04414022400445424,-0.04104491061192962,0.8009770072122304,-0.28863362385975966,20.12689172503062,18.44043731689453,21.51409149169922,6.146993637084961,-0.18084782687614417,-0.6222223901901723,-0.5908858563435535,0.11330476842841505,0.2516217385414619,0.1150069705454925,0.018859207094429595,0.07568593829980147,0.08161753668429335,-9.52077865600586,-36.390586853027344,-37.66474914550781,-0.9042391343807209,-3.111111950950862,-2.9544292817177675,-1.7759556770324707,-6.940495014190674,-7.390616416931152,-0.1561624397943403,-0.5241174106215016,-0.48688923634772346,-0.20393119610200042,-0.7154328980034359,-0.6928035175873021,-0.009908757461891696,-0.03297242725071778,-0.0303365613313486,0.0024666912644883015,0.00853289155255264,0.008140238447320165,-0.04954378730945848,-0.1648621362535889,-0.151682806656743,-0.006887552616070454,-0.02258193616837624,-0.02048207690051259,-0.01312152507095696,-0.04414022400445424,-0.04104491061192962
-133.91749572753906,13.196762084960938,23.081172943115234,-1.8109409809112549,-7.517990112304687,-7.341214656829834,-5.673823356628418,12.086463928222656,-14.099474906921388,0.11666666666666667,-1.3094989976191131,-5.772376980688149,-5.6641887918463745,-0.21484368774882637,-0.7635360395091705,-0.7400050908526885,-0.014911889135530512,-0.05050302433369733,-0.047211619702368694,0.6136440134400165,0.18158164346991687,20.453476139599886,-69.29941177368154,15.757312774658203,-4.198236465454102,-0.1925840764670414,-0.6701061159677061,-0.6415090272445465,0.08181170466828089,0.2485816412979239,0.13126488713854792,0.017890858124468438,0.07381420852599904,0.07945660945970062,-9.28026008605957,-36.378286361694336,-37.615347385406494,-0.962920382335207,-3.3505305798385305,-3.2075451362227323,-1.7759556770324707,-6.940495014190674,-7.341214656829834,-0.16944755917965681,-0.5754205221307847,-0.5392564557405105,-0.21484368774882637,-0.7635360395091705,-0.7400050908526885,-0.011513624765783707,-0.03855664488378199,-0.035682469891719824,0.0026155265093790263,0.009147172367416643,0.008800809165432062,-0.05756812382891854,-0.19278322441890997,-0.17841234945859913,-0.00829961560923426,-0.02737710718613278,-0.02497588069835018,-0.014911889135530512,-0.05050302433369733,-0.047211619702368694
-133.9575958251953,13.054694175720217,23.07910919189453,-1.8231160640716555,-7.714152812957764,-7.155251502990723,-3.069047212600708,11.054760932922363,-12.81874942779541,0.125,-1.2953618560715485,-5.855148024383902,-5.3704336634456595,-0.22563836988275593,-0.8123289397123696,-0.7847587047147356,-0.01679220888455348,-0.05727243216463374,-0.05375127557499149,0.4722547125957003,0.42282370347451714,20.469630644539357,-23.539524078369247,22.31557846069336,-1.4610099792480735,-0.20382223860766127,-0.7174877994840231,-0.6906094770393916,0.03753064248543432,0.31266950386945774,0.21210189550713318,0.01736474630715803,0.07387658588946115,0.07626273994089504,-9.117282390594482,-36.626957416534424,-37.27103090286255,-1.0191111930383063,-3.5874389974201155,-3.4530473851969576,-1.7759556770324707,-6.940495014190674,-7.155251502990723,-0.1816055960626707,-0.6248974224880673,-0.5919011738677988,-0.22563836988275593,-0.8123289397123696,-0.7847587047147356,-0.01321214342084755,-0.04453570987948219,-0.041437548867048084,0.0027601033955996592,0.009762627573709576,0.009434815637683863,-0.06606071710423775,-0.22267854939741094,-0.20718774433524043,-0.009812995576423183,-0.032584585706866676,-0.029908390480581835,-0.01679220888455348,-0.05727243216463374,-0.05375127557499149
-133.98239135742188,12.935629844665527,23.082843780517575,-1.8545364141464236,-7.601549625396728,-7.070501804351807,-1.4305808544158936,8.567642211914062,-11.195394515991213,0.13333333333333333,-1.3003385782596661,-5.629455582871628,-5.181133853114447,-0.23647452470158647,-0.8592410695696332,-0.827934820157356,-0.018762829923733366,-0.06443277441104735,-0.06065073240963613,0.3998169450679621,0.37823123216559973,20.341474034035183,13.512382507324325,10.169963836669922,-3.770442008972168,-0.21479602433544437,-0.7643565289003362,-0.7378162062973028,0.0285583786203267,0.33706430988395775,0.235338028874402,0.017150877327698218,0.07478071685425419,0.0728638564798647,-9.091729760169983,-36.86835289001465,-36.69130325317383,-1.0739801216772218,-3.821782644501681,-3.689081031486514,-1.7759556770324707,-6.940495014190674,-7.070501804351807,-0.19309234324205274,-0.6712436977070722,-0.6435788981744323,-0.23647452470158647,-0.8592410695696332,-0.827934820157356,-0.01500211029030959,-0.05090534762031832,-0.04758601725285894,0.002902959293281962,0.010385542496764332,0.010040786768883066,-0.07501055145154795,-0.2545267381015916,-0.2379300862642947,-0.011422098436773623,-0.03817828318775894,-0.03527154796536877,-0.018762829923733366,-0.06443277441104735,-0.06065073240963613
-133.9950714111328,12.840461730957031,23.08555793762207,-1.9277993440628047,-7.63926887512207,-7.077503681182861,0.0881770178675651,6.750926494598389,-9.14266872406006,0.14166666666666666,-1.3465129552350348,-5.555725179800768,-5.085175085071944,-0.24769546599521175,-0.9055387794013062,-0.8703112791996221,-0.020826958807026796,-0.07197893090605822,-0.06790332640296631,0.3153302599008243,0.36774816002904004,20.38975546657487,-4.526309967041122,-0.8402252197265625,-8.79155158996574,-0.22571664888607618,-0.811215545239183,-0.7831626825023409,0.057313812014038235,0.31122382983291447,0.17695456194635012,0.017260023595584196,0.07525326224725466,0.0700523481129451,-9.19234848022461,-37.413456439971924,-36.11699724197388,-1.128583244430381,-4.056077726195915,-3.9158134125117043,-1.7759556770324707,-6.940495014190674,-7.070501804351807,-0.20393119610200042,-0.7154328980034359,-0.6928035175873021,-0.24769546599521175,-0.9055387794013062,-0.8703112791996221,-0.016883082364360223,-0.05766547716397817,-0.05411237294037845,0.0030467518067714924,0.011012027038692468,0.010623675214128063,-0.08441541182180111,-0.28832738581989087,-0.27056186470189225,-0.01312152507095696,-0.04414022400445424,-0.04104491061192962,-0.020826958807026796,-0.07197893090605822,-0.06790332640296631
-134.00042724609375,12.765347480773926,23.089393615722656,-1.954638123512268,-7.331021785736084,-6.834528923034668,0.901787519454956,4.901885986328125,-7.405255317687988,0.15,-1.345663086902028,-5.139307742415897,-4.742153369958189,-0.2589093250527287,-0.9483663439214387,-0.9098292239492737,-0.022984536515799535,-0.07988198377207022,-0.0754852366025436,0.21413672815254062,0.28292280957052507,20.015360177970344,36.98965072631836,29.156970977783203,-3.2206535339356,-0.23671227467622186,-0.8578022344227836,-0.8265678237747351,0.06391617522479716,0.1465995359417822,0.18234593814960184,0.017423134933135447,0.07320628719184978,0.06724754363199974,-9.371030926704407,-37.803983211517334,-35.47900056838989,-1.1835613733811092,-4.289011172113918,-4.132839118873676,-1.8109409809112549,-7.331021785736084,-6.834528923034668,-0.21484368774882637,-0.7635360395091705,-0.7400050908526885,-0.2589093250527287,-0.9483663439214387,-0.9098292239492737,-0.01885568465332874,-0.06481382911750137,-0.06100043813850124,0.0031919201441531664,0.01162115498331133,0.01118328461107507,-0.0942784232666437,-0.3240691455875069,-0.3050021906925062,-0.014911889135530512,-0.05050302433369733,-0.047211619702368694,-0.022984536515799535,-0.07988198377207022,-0.0754852366025436
-134.01991271972656,12.708809852600098,23.089618682861328,-2.002121925354004,-7.2413434982299805,-6.898036956787109,-0.6609752774238586,3.740894556045532,-5.599835395812988,0.15833333333333333,-1.3650814418889803,-4.9457884502804,-4.708029582007337,-0.27028500373513686,-0.9895812476737753,-0.9490628037993348,-0.025236911546925676,-0.08812849416935167,-0.08339409330087139,0.19914306333569937,0.16284625402481565,20.00618972255896,10.761394500732422,-7.620964050292969,-5.698056221008301,-0.24780053787348394,-0.9030112760557045,-0.8683793663640644,0.07312836243456762,0.20668631920466038,0.13472271347902925,0.017666406412995113,0.07017290705952728,0.06492267791370723,-9.562211871147156,-37.52733659744263,-35.03582286834717,-1.2390026893674198,-4.515056380278523,-4.341896831820322,-1.8231160640716555,-7.2413434982299805,-6.834528923034668,-0.22563836988275593,-0.8123289397123696,-0.7847587047147356,-0.27028500373513686,-0.9895812476737753,-0.9490628037993348,-0.02092068913560777,-0.07233892308463225,-0.06823693285820179,0.0033391141358450186,0.01220496056357456,0.011723623770985691,-0.10460344567803885,-0.3616946154231612,-0.3411846642910089,-0.01679220888455348,-0.05727243216463374,-0.05375127557499149,-0.025236911546925676,-0.08812849416935167,-0.08339409330087139
-134.03433227539062,12.666358947753906,23.08595848083496,-2.16445541381836,-7.448315143585205,-6.810674667358398,0.0126918535679578,2.8114826679229736,-3.975022077560425,0.16666666666666666,-1.4978335631090265,-5.0488682361162915,-4.5241201091718874,-0.28276695009437874,-1.031655149641411,-0.9867638047091005,-0.027593302797712164,-0.09672562041636343,-0.09161712500678056,-0.017758435745953313,0.2977736032112943,20.127876266962897,-24.836597442626953,10.483474731445312,-19.48001861572271,-0.25922625391580845,-0.946876518041513,-0.9087803863629373,0.1157798575625237,0.17063099141127688,0.12799681990585163,0.018215110625175925,0.06782718915527564,0.06269183466130057,-9.90355122089386,-37.26149892807007,-34.691246032714844,-1.2961312695790423,-4.734382590207565,-4.543901931814687,-1.8545364141464236,-7.2413434982299805,-6.810674667358398,-0.23647452470158647,-0.8592410695696332,-0.827934820157356,-0.28276695009437874,-1.031655149641411,-0.9867638047091005,-0.023080907918239506,-0.08022956073497818,-0.0758101027445596,0.0034908964036828105,0.012769546731339215,0.012245489216790605,-0.11540453959119754,-0.4011478036748909,-0.37905051372279797,-0.018762829923733366,-0.06443277441104735,-0.06065073240963613,-0.027593302797712164,-0.09672562041636343,-0.09161712500678056
-134.0401153564453,12.640026092529297,23.074886322021484,-2.183038711547852,-7.095461368560791,-6.675207138061523,1.2795591354370115,2.170192003250122,-2.07279372215271,0.175,-1.4855769791247346,-4.5942952156638714,-4.2948621188586,-0.29514675825375153,-1.0699409431052767,-1.0225543223662554,-0.030052859116493427,-0.10564179494224074,-0.10013841102649935,-0.05120255096129606,0.12383953592985415,19.79256792879459,42.34245300292969,16.256103515625,-2.2299957275390625,-0.27096070062624156,-0.9890164927486417,-0.9477042868047174,0.11943002460863716,0.20633275151343355,0.14661305292192253,0.018783744781090156,0.0651692103309574,0.06032043050115267,-10.232053518295288,-36.75541067123413,-34.29595136642456,-1.3548035031312078,-4.9450824637432085,-4.738521434023587,-1.9277993440628047,-7.095461368560791,-6.675207138061523,-0.24769546599521175,-0.9055387794013062,-0.8703112791996221,-0.29514675825375153,-1.0699409431052767,-1.0225543223662554,-0.02533891375679152,-0.08847136484121684,-0.08370763846793224,0.003647423231354691,0.013312135530299014,0.012747673778322706,-0.1266945687839576,-0.44235682420608424,-0.41853819233966116,-0.020826958807026796,-0.07197893090605822,-0.06790332640296631,-0.030052859116493427,-0.10564179494224074,-0.10013841102649935
-134.04776000976562,12.631120681762695,23.05291557312012,-2.164117813110352,-7.033822059631348,-6.611640453338623,1.305583357810974,1.556039333343506,0.412312388420105,0.18333333333333332,-1.436098245747265,-4.435359781670473,-4.140040248540554,-0.30711424363497875,-1.1069022746191972,-1.05705465777076,-0.032612144480118246,-0.11486598056406738,-0.10894719984125568,-0.0550234177582834,0.12670536623079426,19.70205571827557,7.396717071533203,7.628002166748047,2.2705078125,-0.2828444561541949,-1.0292891917922198,-0.9850529625189448,0.10685404571141753,0.1692498193792018,0.1185284871078247,0.019176845246360638,0.06286330686676761,0.05819670407246833,-10.468371987342834,-36.14996385574341,-33.83008813858032,-1.4142222807709746,-5.146445958961099,-4.925264812594724,-1.954638123512268,-7.033822059631348,-6.611640453338623,-0.2589093250527287,-0.9483663439214387,-0.9098292239492737,-0.30711424363497875,-1.1069022746191972,-1.05705465777076,-0.02769595089140981,-0.09704877477281867,-0.09191641315559011,0.0038071909700819148,0.013835347537068457,0.013232082377137536,-0.13847975445704905,-0.4852438738640934,-0.4595820657779506,-0.022984536515799535,-0.07988198377207022,-0.0754852366025436,-0.032612144480118246,-0.11486598056406738,-0.10894719984125568
-134.05068969726562,12.637617111206056,23.02313995361328,-2.2853832244873047,-7.122603893280029,-6.516258716583252,2.1115221977233887,1.008189082145691,2.286288022994995,0.19166666666666665,-1.526220071701275,-4.427508205200419,-3.9555815252589284,-0.31983274423248936,-1.1437981763292007,-1.0900178371479177,-0.03527741734872233,-0.1243976320334774,-0.11803068181748833,-0.2144812611820953,0.20103867569055528,19.726131887195805,-10.653820037841797,11.445808410644531,-14.551849365234322,-0.29502913999014707,-1.0683755582737722,-1.0210906851586738,0.10150600087807952,0.16372225807888177,0.1529890030895757,0.019518682893700963,0.06068826371182383,0.0557064903215539,-10.799117088317871,-35.94154596328735,-33.511817932128906,-1.4751456999507353,-5.34187779136886,-5.105453425793369,-2.002121925354004,-7.033822059631348,-6.516258716583252,-0.27028500373513686,-0.9895812476737753,-0.9490628037993348,-0.31983274423248936,-1.1437981763292007,-1.0900178371479177,-0.030154527057994367,-0.10595190442510012,-0.10042550219857907,0.0039697933422551315,0.014340502589342066,0.01369580683331814,-0.15077263528997184,-0.5297595221255006,-0.5021275109928953,-0.025236911546925676,-0.08812849416935167,-0.08339409330087139,-0.03527741734872233,-0.1243976320334774,-0.11803068181748833
-134.04759216308594,12.651801109313965,22.99221611022949,-2.3154971599578857,-6.953560829162598,-6.378177165985107,2.829514980316162,0.3821260035037994,3.1312508583068848,0.2,-1.5241967916527304,-4.163397568737645,-3.7312138609025194,-0.3325343841629288,-1.178493156068681,-1.121111285988772,-0.03804853721674673,-0.13421840833404974,-0.12737327586739475,-0.2756686832355881,0.15472108006074584,19.520548255778316,20.285167694091797,16.569786071777344,-3.6136722564697266,-0.30747901607570544,-1.1061579399527535,-1.0555003815965611,0.07234918570323616,0.18904384070543342,0.1630800931876759,0.019642364396528878,0.058120696709380304,0.05317147051836786,-11.112492322921753,-35.65376329421997,-32.991958141326904,-1.5373950803785272,-5.530789699763767,-5.277501907982805,-2.164117813110352,-6.953560829162598,-6.378177165985107,-0.28276695009437874,-1.031655149641411,-0.9867638047091005,-0.3325343841629288,-1.178493156068681,-1.121111285988772,-0.03271685219195858,-0.11516988725803974,-0.10922133871188373,0.004133459215110004,0.014824517788176146,0.014138426504416391,-0.1635842609597929,-0.5758494362901987,-0.5461066935594187,-0.027593302797712164,-0.09672562041636343,-0.09161712500678056,-0.03804853721674673,-0.13421840833404974,-0.12737327586739475
-134.05917358398438,12.680227279663086,22.960697174072266,-2.29070258140564,-7.122084617614746,-6.199760913848877,1.11897075176239,-0.6781625747680664,4.317266941070557,0.20833333333333334,-1.4675128209274142,-4.23773627855157,-3.469981669773669,-0.34476365767065725,-1.2138076250566108,-1.1500277999035526,-0.04092156769733554,-0.14433347187618817,-0.13695684086659102,-0.34596020866409105,0.3936483980759776,19.512257236258204,-20.222854614257812,21.409950256347656,2.975349426269478,-0.3198783575909611,-1.1425884350357933,-1.0881531806354516,0.06897962567322331,0.07227417734466554,0.19077454109539246,0.019710592711045978,0.05681977125689174,0.050469075909290985,-11.238739490509035,-35.32753276824951,-32.38104438781738,-1.5993917879548056,-5.712942175178966,-5.440765903177258,-2.164117813110352,-6.953560829162598,-6.199760913848877,-0.29514675825375153,-1.0699409431052767,-1.0225543223662554,-0.34476365767065725,-1.2138076250566108,-1.1500277999035526,-0.03538250517188325,-0.12469145755000469,-0.11828928188384583,0.004297674063196716,0.015297773489437932,0.014558435603047247,-0.17691252585941628,-0.6234572877500234,-0.5914464094192291,-0.030052859116493427,-0.10564179494224074,-0.10013841102649935,-0.04092156769733554,-0.14433347187618817,-0.13695684086659102
-134.0560760498047,12.71981430053711,22.9354248046875,-2.3399341106414795,-7.25256872177124,-6.128040313720703,2.6867153644561768,-2.2147605419158936,4.862260818481445,0.21666666666666667,-1.4849402782731973,-4.272386034837789,-3.318328446555796,-0.3571381599896006,-1.2494108420135923,-1.1776805369581842,-0.04389771903058221,-0.1547452288929681,-0.14677084534124255,-0.4301775318333781,0.5120273953212301,19.56605955446616,-15.658092498779297,8.60647201538086,-5.907783508300728,-0.3322766379381309,-1.1784824148174564,-1.1191784235538373,0.06786114635536619,0.11186224403562635,0.20452532639986035,0.01976160387757827,0.05613694249031983,0.047664502844733544,-11.395634889602663,-35.48464012145996,-31.833877563476562,-1.6613831896906546,-5.892412074087282,-5.5958921177691865,-2.164117813110352,-6.953560829162598,-6.128040313720703,-0.30711424363497875,-1.1069022746191972,-1.05705465777076,-0.3571381599896006,-1.2494108420135923,-1.1776805369581842,-0.038151477154701005,-0.13451214434015016,-0.12761576874679448,0.004462278571240064,0.01576544937713004,0.014955105707635204,-0.19075738577350504,-0.6725607217007508,-0.6380788437339724,-0.032612144480118246,-0.11486598056406738,-0.10894719984125568,-0.04389771903058221,-0.1547452288929681,-0.14677084534124255
-134.03955078125,12.77361297607422,22.916614532470703,-2.4060120582580566,-7.22534704208374,-6.139294624328613,4.157101154327393,-3.863190889358521,5.473417282104492,0.225,-1.5185329983783546,-4.149348612723355,-3.2509111941872515,-0.3697926016427535,-1.2839887471196203,-1.2047714635764113,-0.046979324044271825,-0.16544513511896494,-0.15681060753771264,-0.47169970215172835,0.4622488444502683,19.56957467229674,3.2666015625,-1.3505172729492188,-7.929353713989258,-0.3448123095396859,-1.213899709317541,-1.1487217847149673,0.04896603719280163,0.11750038737905616,0.1691811422226911,0.019689274265233626,0.055545862098741315,0.04525034421828465,-11.637529134750366,-35.67616510391235,-31.361531734466553,-1.7240615476984293,-6.069498546587705,-5.743608923574837,-2.2853832244873047,-6.953560829162598,-6.128040313720703,-0.31983274423248936,-1.1437981763292007,-1.0900178371479177,-0.3697926016427535,-1.2839887471196203,-1.2047714635764113,-0.041024913067531726,-0.14462797525112966,-0.13718845028608587,0.004626316696078844,0.01622825906065813,0.015331851932248524,-0.20512456533765863,-0.7231398762556484,-0.6859422514304293,-0.03527741734872233,-0.1243976320334774,-0.11803068181748833,-0.046979324044271825,-0.16544513511896494,-0.15681060753771264
-134.0059051513672,12.831141471862791,22.898290634155277,-2.3766534328460693,-7.129895210266113,-6.216324329376221,6.173402786254883,-4.29327917098999,5.845873355865479,0.23333333333333334,-1.4566776249359767,-3.9600081406064485,-3.249267004006783,-0.3819315818505533,-1.3169888149580073,-1.2318486886098012,-0.05016208722635977,-0.17642004191028166,-0.16707601327612764,-0.3896573260218161,0.35882796240304876,19.548890341250615,11.454219818115234,-9.24356460571289,3.5230350494384766,-0.3572320770632987,-1.2485378370433022,-1.177087955007344,0.04627584287122367,0.11734961529109325,0.10014756090039374,0.01957855109306651,0.05489879438083027,0.043678098669122825,-11.72879934310913,-35.68345642089844,-31.06159734725952,-1.7861603853164933,-6.242689185216511,-5.885439775036721,-2.29070258140564,-6.953560829162598,-6.128040313720703,-0.3325343841629288,-1.178493156068681,-1.121111285988772,-0.3819315818505533,-1.3169888149580073,-1.2318486886098012,-0.04400184704305922,-0.15503245722649053,-0.14699751657781374,0.004789436025970194,0.016685533093350968,0.015695701289679103,-0.22000923521529608,-0.7751622861324526,-0.7349875828890686,-0.03804853721674673,-0.13421840833404974,-0.12737327586739475,-0.05016208722635977,-0.17642004191028166,-0.16707601327612764
-133.9684295654297,12.888051986694336,22.88298988342285,-2.30635142326355,-7.095536231994629,-6.221841335296631,6.581488609313965,-4.409055709838867,5.4568705558776855,0.24166666666666667,-1.355018860983722,-3.833734131006863,-3.1761583410225676,-0.3932234056920843,-1.3489365993830646,-1.2583166747849892,-0.05343894894046047,-0.18766118023847386,-0.17756198556600256,-0.3085193465301049,0.3562285610768361,19.513356013969286,4.123077392578125,-0.6620407104492188,8.436241149902344,-0.3693698813691298,-1.282626525706179,-1.2045290327665878,0.0479225407916515,0.06929881059512366,0.04419232924288418,0.019248681036932534,0.053429793118216724,0.042809925580275056,-11.719653606414795,-35.82543182373047,-30.905261516571045,-1.846849406845649,-6.413132628530895,-6.022645163832939,-2.29070258140564,-7.095536231994629,-6.128040313720703,-0.34476365767065725,-1.2138076250566108,-1.1500277999035526,-0.3932234056920843,-1.3489365993830646,-1.2583166747849892,-0.047079929387801964,-0.16572101160737535,-0.15703525851753528,0.004949717909038486,0.01713046276934309,0.016052373506171922,-0.23539964693900983,-0.8286050580368767,-0.7851762925876764,-0.04092156769733554,-0.14433347187618817,-0.13695684086659102,-0.05343894894046047,-0.18766118023847386,-0.17756198556600256
-133.929931640625,12.94195556640625,22.871639251708984,-2.2171196937561035,-6.876518249511719,-6.170966625213623,6.569949626922607,-4.570002555847168,4.970801830291748,0.25,-1.2360667096329454,-3.525803006830741,-3.0477869484586915,-0.4035239616056922,-1.378318291106654,-1.2837148993554783,-0.056801648620507905,-0.19914716599769597,-0.18825960972729822,-0.21240175499088182,0.26478112961992534,19.30566893429227,26.28215789794922,6.1049652099609375,10.707807540893555,-0.38112194215613676,-1.3155286589161879,-1.2312664526569728,0.07306023751049279,0.14880451878597645,0.043005041677269026,0.018388360279297605,0.05105656715991718,0.04200097583575837,-11.646070718765259,-35.57986545562744,-30.87646722793579,-1.9056097107806838,-6.577643294580939,-6.156332263284864,-2.2171196937561035,-6.876518249511719,-6.128040313720703,-0.3571381599896006,-1.2494108420135923,-1.1776805369581842,-0.4035239616056922,-1.378318291106654,-1.2837148993554783,-0.050255945572436435,-0.1766837504316769,-0.16729581228967674,0.005102691486360041,0.017555510158427462,0.016402265203901277,-0.25127972786218217,-0.8834187521583845,-0.8364790614483837,-0.04389771903058221,-0.1547452288929681,-0.14677084534124255,-0.056801648620507905,-0.19914716599769597,-0.18825960972729822
-133.9028778076172,12.995996475219728,22.86290740966797,-2.1508677005767822,-7.03823709487915,-6.100477695465088,5.153878688812256,-4.720779895782471,4.678887844085693,0.2583333333333333,-1.1416834636261486,-3.599933532656654,-2.9015641060893778,-0.41303799046924344,-1.4083177372121263,-1.3078946002395564,-0.060243631874418266,-0.21088314714113035,-0.19915873139596119,-0.192186284369158,0.4454107636081698,19.356911284061812,-19.406261444091797,8.458671569824219,7.950239181518555,-0.39230190825206535,-1.3473100379558947,-1.2573092653132474,0.10711501743563429,0.12919757039913907,0.05150323496823553,0.01710980200372831,0.04902820430970784,0.04082159376492853,-11.457004308700562,-35.36553382873535,-30.848904609680176,-1.9615095412603267,-6.736550189779473,-6.286546326566237,-2.1508677005767822,-6.876518249511719,-6.100477695465088,-0.3697926016427535,-1.2839887471196203,-1.2047714635764113,-0.41303799046924344,-1.4083177372121263,-1.3078946002395564,-0.05352512814120365,-0.18791133408130936,-0.17777338950062044,0.005244971429604838,0.017963787063348582,0.016742240291843534,-0.26762564070601824,-0.9395566704065468,-0.8888669475031021,-0.046979324044271825,-0.16544513511896494,-0.15681060753771264,-0.060243631874418266,-0.21088314714113035,-0.19915873139596119
-133.86378479003906,13.046648025512695,22.862770080566406,-2.2561492919921875,-7.233168601989746,-6.064713001251221,6.343199729919434,-5.239059448242188,3.784567832946777,0.26666666666666666,-1.218769369423652,-3.705100570228473,-2.791687981684783,-0.4231944018811072,-1.4391935752973635,-1.3311586667535962,-0.06377025189009417,-0.22287642693527504,-0.21025172028557448,-0.31480064400042285,0.5614008984665798,19.493770496343384,-23.391780853271484,4.2917633056640625,-12.633790969848633,-0.4029822682997361,-1.3783510035914432,-1.2825867059486842,0.08589191594788019,0.1315280417920461,0.07001375358424872,0.016188793371311846,0.0480373555022821,0.039256778161242525,-11.307141542434692,-35.37335538864136,-30.774322986602783,-2.0149113414986806,-6.891755017957216,-6.412933529743421,-2.1508677005767822,-6.876518249511719,-6.064713001251221,-0.3819315818505533,-1.3169888149580073,-1.2318486886098012,-0.4231944018811072,-1.4391935752973635,-1.3311586667535962,-0.05688331371036812,-0.1993975924445714,-0.18846161205019282,0.005379750434718903,0.0183640106537358,0.017069151096099206,-0.2844165685518406,-0.9969879622228569,-0.9423080602509641,-0.05016208722635977,-0.17642004191028166,-0.16707601327612764,-0.06377025189009417,-0.22287642693527504,-0.21025172028557448
-133.79954528808594,13.096298217773438,22.873794555664062,-2.2597756385803223,-6.923421382904053,-6.199211120605469,9.079312324523926,-6.009202480316162,2.7076425552368164,0.275,-1.1935473970707853,-3.30741092385297,-2.8519561576671997,-0.4331406301900304,-1.4667553329961383,-1.3549249680674895,-0.06737975714167775,-0.2350993880435762,-0.2215427616861369,-0.21235059662820463,0.2551001172558464,19.368263401586102,37.1696662902832,-16.139774322509766,-0.4351615905761719,-0.4132240779676315,-1.4083043071990695,-1.307201961840222,0.058102287339975696,0.14186171101054315,0.06659287845566246,0.015733961586591093,0.04688911220413018,0.038056872494540844,-11.190263748168945,-35.1668815612793,-30.75720977783203,-2.0661203898381575,-7.041521535995347,-6.53600980920111,-2.1508677005767822,-6.876518249511719,-6.064713001251221,-0.3932234056920843,-1.3489365993830646,-1.2583166747849892,-0.4331406301900304,-1.4667553329961383,-1.3549249680674895,-0.060326847693431704,-0.2111334616712303,-0.19935496173219466,0.005510845369682677,0.018754631408489316,0.01738617961488689,-0.30163423846715853,-1.0556673083561514,-0.9967748086609733,-0.05343894894046047,-0.18766118023847386,-0.17756198556600256,-0.06737975714167775,-0.2350993880435762,-0.2215427616861369
-133.73150634765625,13.13668155670166,22.89101791381836,-2.053064346313477,-6.654747486114502,-6.258347511291504,9.342114448547363,-5.8433756828308105,1.5006484985351562,0.2833333333333333,-0.9599734859024616,-2.956514739684204,-2.8359464968136745,-0.4411404092392176,-1.49139295582684,-1.3785578555409368,-0.07105592721867122,-0.24752766267546653,-0.2330307438156447,0.040372666605499145,0.10181390236322974,19.17245987244892,32.240867614746094,-7.096366882324219,24.80535507202143,-0.42280747867705826,-1.4367955784878244,-1.3312501979914113,0.08693192027382596,0.21280035765224434,0.07737026374095615,0.015085730038990492,0.045041068688424994,0.03742861920276189,-10.936976671218872,-34.72609281539917,-30.793715953826904,-2.114037393385291,-7.183977892439122,-6.656250989957057,-2.053064346313477,-6.654747486114502,-6.064713001251221,-0.4035239616056922,-1.378318291106654,-1.2837148993554783,-0.4411404092392176,-1.49139295582684,-1.3785578555409368,-0.06385024334907385,-0.22310675815862885,-0.21044871338212312,0.005636401339750243,0.019129398345711614,0.017698056579782847,-0.31925121674536927,-1.1155337907931442,-1.0522435669106156,-0.056801648620507905,-0.19914716599769597,-0.18825960972729822,-0.07105592721867122,-0.24752766267546653,-0.2330307438156447
-133.67063903808594,13.171031951904297,22.91063499450684,-1.940118670463562,-6.50323486328125,-6.290987491607666,8.433985710144043,-5.460211753845215,0.6968224048614502,0.2916666666666667,-0.8231182968417141,-2.727119038473538,-2.793393381772982,-0.4479997283795652,-1.5141189478141195,-1.4018361337223784,-0.07478925828850093,-0.26014532057391754,-0.24471271159666452,0.18224951059848601,0.012056654809985443,19.061988300630492,18.181514739990234,-3.916797637939453,13.5534811019898,-0.4317026320318328,-1.4639557098293177,-1.3548744448647914,0.1370628802510092,0.29321397024350776,0.09798312600511817,0.013941786575294263,0.04179036404022087,0.03720164864168783,-10.65997564792633,-34.3528094291687,-30.913736820220947,-2.158513160159164,-7.319778549146588,-6.774372224323957,-1.940118670463562,-6.50323486328125,-6.064713001251221,-0.41303799046924344,-1.4083177372121263,-1.3078946002395564,-0.4479997283795652,-1.5141189478141195,-1.4018361337223784,-0.06744776528267246,-0.23530638907387313,-0.22173933375599636,0.0057520565916630885,0.019476739981370984,0.018008050542130463,-0.33723882641336234,-1.1765319453693657,-1.1086966687799817,-0.060243631874418266,-0.21088314714113035,-0.19915873139596119,-0.07478925828850093,-0.26014532057391754,-0.24471271159666452
-133.6278839111328,13.20223617553711,22.922853469848636,-1.9707590341567995,-6.3525238037109375,-6.207144737243652,6.444094181060791,-4.655669689178467,1.1168447732925415,0.3,-0.8307756343805588,-2.501834451050711,-2.635519127787326,-0.45492285866606985,-1.534967568239542,-1.423798793120606,-0.07858028211071817,-0.2729367169759137,-0.25657770153933623,0.14378077718747337,-0.05851229101632366,18.906317883431058,18.0853271484375,10.06113052368164,-3.676843643188503,-0.4400796056711981,-1.4892856760348006,-1.3780552834410014,0.15353990585518848,0.35003773534004295,0.08653631292339088,0.012424122656716254,0.03783121133576349,0.03671700642289137,-10.479866981506348,-33.66709613800049,-31.02040386199951,-2.2003980283559903,-7.4464283801740025,-6.890276417205007,-1.940118670463562,-6.3525238037109375,-6.064713001251221,-0.4231944018811072,-1.4391935752973635,-1.3311586667535962,-0.45492285866606985,-1.534967568239542,-1.423798793120606,-0.07111509532993245,-0.24771710304082983,-0.23322312778467139,0.005855157225043072,0.019791357500620596,0.018313930338077117,-0.3555754766496622,-1.2385855152041492,-1.166115638923357,-0.06377025189009417,-0.22287642693527504,-0.21025172028557448,-0.07858028211071817,-0.2729367169759137,-0.25657770153933623
-133.59605407714844,13.231008529663086,22.927209854125977,-1.9389694929122925,-6.565513610839844,-6.25039529800415,5.366502285003662,-3.707378387451172,1.4510592222213743,0.30833333333333335,-0.7762377084871785,-2.6404593524643944,-2.6058024768221397,-0.46139150623679637,-1.5569713961767453,-1.4455138137607906,-0.08242521132935814,-0.2859114786107199,-0.26862364998734284,0.17219137042137167,0.0736165861982196,19.078114359462184,-25.55877685546875,-5.190067291259766,3.814744949340847,-0.4477190265423359,-1.512841240210677,-1.4009263128424403,0.13525098325908305,0.21177575766790727,0.03801384747367309,0.011121134582515572,0.03543521321069594,0.0358067555407071,-10.162687182426453,-32.999441146850586,-31.20608615875244,-2.2385951327116795,-7.564206201053385,-7.004631564212201,-1.9389694929122925,-6.3525238037109375,-6.199211120605469,-0.4331406301900304,-1.4667553329961383,-1.3549249680674895,-0.46139150623679637,-1.5569713961767453,-1.4455138137607906,-0.07484608721778524,-0.26032411337591876,-0.24489751372502502,0.005947729838949251,0.02008643145706218,0.018612194604763786,-0.3742304360889262,-1.301620566879594,-1.224487568625125,-0.06737975714167775,-0.2350993880435762,-0.2215427616861369,-0.08242521132935814,-0.2859114786107199,-0.26862364998734284
-133.56610107421875,13.255499839782717,22.92914581298828,-1.8786067962646484,-6.4633073806762695,-6.195219993591309,5.189277648925781,-3.2275218963623047,1.3650978803634644,0.31666666666666665,-0.6941276279047766,-2.4636878928793235,-2.4784753998394624,-0.4671759031360028,-1.5775021286174062,-1.4661677754261195,-0.08631834385549149,-0.2990573296825316,-0.2808417147825605,0.2199937065358641,0.05562512583996799,18.955095143055075,12.264747619628906,6.621036529541016,7.243523597717285,-0.45452608113153037,-1.5349905993349306,-1.4231748743141661,0.0635822658590714,0.11295522777672774,0.039141592726863635,0.010357110881956927,0.034010169210232935,0.03461873499478227,-9.781518340110779,-32.5393271446228,-31.20209503173828,-2.272630405657652,-7.674952996674653,-7.115874371570831,-1.8786067962646484,-6.3525238037109375,-6.195219993591309,-0.4411404092392176,-1.49139295582684,-1.3785578555409368,-0.4671759031360028,-1.5775021286174062,-1.4661677754261195,-0.078633804560548,-0.27311570170370986,-0.25675730434430977,0.006033956727579106,0.02036977253396172,0.018900549801676398,-0.39316902280273996,-1.3655785085185492,-1.283786521721549,-0.07105592721867122,-0.24752766267546653,-0.2330307438156447,-0.08631834385549149,-0.2990573296825316,-0.2808417147825605
-133.54957580566406,13.283177375793455,22.931072235107425,-1.8529672622680664,-6.457675457000732,-6.177605628967285,3.5966227054595947,-3.411316394805908,1.553247094154358,0.325,-0.6476819713286315,-2.385138466315315,-2.3900332451698096,-0.47257325289707475,-1.597378282503367,-1.486084719135868,-0.09025645429630044,-0.31236881537005967,-0.2932257541086927,0.24115178483351146,0.07142931889861083,18.933300661444214,0.6758308410644531,2.1137237548828125,3.0767440795898438,-0.4608126498631018,-1.556187664670236,-1.4446802470331526,0.048679650289356786,0.07780223575504039,0.04595784998490026,0.00972109109008807,0.03305925375880195,0.03334813406670328,-9.581421256065369,-32.34225511550903,-31.121353149414062,-2.304063249315509,-7.7809383233511795,-7.223401235165762,-1.8529672622680664,-6.3525238037109375,-6.177605628967285,-0.4479997283795652,-1.5141189478141195,-1.4018361337223784,-0.47257325289707475,-1.597378282503367,-1.486084719135868,-0.08247390997607384,-0.28608393224262846,-0.2687963064029194,0.0061148231581316295,0.020645185316322177,0.019178330428399365,-0.4123695498803692,-1.4304196612131423,-1.343981532014597,-0.07478925828850093,-0.26014532057391754,-0.24471271159666452,-0.09025645429630044,-0.31236881537005967,-0.2932257541086927
-133.54061889648438,13.306917190551758,22.93543243408203,-1.7972524166107178,-6.471695899963379,-6.19149112701416,2.6007797718048096,-3.368349075317383,1.106471061706543,0.3333333333333333,-0.5720556756324231,-2.3268966879576043,-2.333823068329732,-0.4773403835273449,-1.6167690882363472,-1.5055332447052823,-0.09423429082569498,-0.32584189110536255,-0.3057718644812367,0.2994442865070844,0.0941570983418989,18.939567021859308,-1.6824531555175781,-1.666259765625,6.685781478881836,-0.46668078089265774,-1.5767176927546815,-1.4654196692297332,0.06891512573263871,0.07552222189646576,0.027802638172376607,0.008871564999478072,0.03226677359913523,0.03226934806430485,-9.438555002212524,-32.31071615219116,-31.021856784820557,-2.333403904463289,-7.883588463773408,-7.3270983461486665,-1.7972524166107178,-6.3525238037109375,-6.177605628967285,-0.45492285866606985,-1.534967568239542,-1.423798793120606,-0.4773403835273449,-1.6167690882363472,-1.5055332447052823,-0.08636291648351264,-0.2992232463489175,-0.2810081369798338,0.00618859994496339,0.02091393404343855,0.019447119055905848,-0.4318145824175632,-1.4961162317445875,-1.405040684899169,-0.07858028211071817,-0.2729367169759137,-0.25657770153933623,-0.09423429082569498,-0.32584189110536255,-0.3057718644812367
-133.53504943847656,13.32904815673828,22.936452865600582,-1.828313946723938,-6.29167366027832,-6.226192474365234,2.3074963092803955,-2.8756589889526367,1.1468645334243774,0.3416666666666667,-0.5836150747985251,-2.076735129482004,-2.2987152263223,-0.4822038424839993,-1.6340752143153638,-1.5246892049246348,-0.09825265617972831,-0.33945918455799057,-0.3184776078556087,0.31068714650474183,-0.06398545288849553,18.842870054522148,21.60266876220703,-4.164161682128906,-3.727383613586426,-0.4721369776562437,-1.596539221969846,-1.485597751590539,0.053782180410583025,0.09889050971155726,0.029529023967718785,0.008195806132210678,0.030606069636625585,0.031265191477830835,-9.296109914779663,-32.249866008758545,-31.04090452194214,-2.3606848882812184,-7.98269610984923,-7.427988757952695,-1.7972524166107178,-6.29167366027832,-6.177605628967285,-0.46139150623679637,-1.5569713961767453,-1.4455138137607906,-0.4822038424839993,-1.6340752143153638,-1.5246892049246348,-0.09029739129731466,-0.3125277398653329,-0.2933881182430883,0.0062568188617730496,0.02116879724463619,0.019707594664264947,-0.45148695648657333,-1.5626386993266643,-1.4669405912154416,-0.08242521132935814,-0.2859114786107199,-0.26862364998734284,-0.09825265617972831,-0.33945918455799057,-0.3184776078556087
-133.54600524902344,13.350102424621582,22.930612564086918,-1.824642300605774,-6.124821186065674,-6.231210708618164,0.492420881986618,-2.2846362590789795,1.692473292350769,0.35,-0.5604086412987173,-1.8433761085970115,-2.2342850316011686,-0.4868739144948219,-1.6494366818870057,-1.5433082468546444,-0.10230993880051849,-0.3532044902403823,-0.3313385099127307,0.3375966879258694,-0.17955632348606096,18.72765266113422,20.022296905517578,-0.6021881103515625,0.4405975341796875,-0.4772334593078488,-1.615032279111898,-1.5051566382093098,0.030789768698082462,0.15219199729767088,0.023251667609439714,0.007754458038113963,0.02858972109782775,0.03050031866817679,-9.181782722473145,-31.809173583984375,-31.021719932556152,-2.3861672965392438,-8.07516139555949,-7.525783191046549,-1.7972524166107178,-6.124821186065674,-6.177605628967285,-0.4671759031360028,-1.5775021286174062,-1.4661677754261195,-0.4868739144948219,-1.6494366818870057,-1.5433082468546444,-0.09427433679154675,-0.3259863421912653,-0.3059310902281659,0.006321406722884642,0.021406626790554707,0.019961711841680094,-0.4713716839577337,-1.6299317109563267,-1.5296554511408293,-0.08631834385549149,-0.2990573296825316,-0.2808417147825605,-0.10230993880051849,-0.3532044902403823,-0.3313385099127307
-133.57142639160156,13.374314308166504,22.915027618408203,-1.9099876880645752,-6.263390064239502,-6.217718124389648,-0.951773762702942,-1.6441775560379028,2.665301561355591,0.35833333333333334,-0.6257294359198076,-1.9163546497252675,-2.152110185168744,-0.49208832646082035,-1.6654063039680496,-1.5612424983977173,-0.10641067485435865,-0.3670828761067827,-0.34434886406604504,0.2414739448570312,-0.10174869822451994,18.83604366686206,-16.628265380859375,1.619110107421875,-10.241446495056152,-0.48221594397281226,-1.6326131141820266,-1.5241715828036295,0.042519257051017424,0.14495764690584856,0.023221473498594863,0.007679735553049644,0.026707161890867564,0.029743610480922514,-9.213163614273071,-31.609256267547607,-31.044218063354492,-2.411079719864061,-8.163065570910133,-7.620857914018147,-1.7972524166107178,-6.124821186065674,-6.177605628967285,-0.47257325289707475,-1.597378282503367,-1.486084719135868,-0.49208832646082035,-1.6654063039680496,-1.5612424983977173,-0.09829280299132018,-0.3395914514761156,-0.31863252008486276,0.006385398515504207,0.021628875803601844,0.020209507310830238,-0.49146401495660086,-1.697957257380578,-1.5931626004243138,-0.09025645429630044,-0.31236881537005967,-0.2932257541086927,-0.10641067485435865,-0.3670828761067827,-0.34434886406604504
-133.60592651367188,13.398764610290527,22.89022445678711,-1.9926486015319824,-6.262710571289063,-6.229100704193115,-1.803037166595459,-0.962480366230011,3.513798475265503,0.36666666666666664,-0.6871523014899312,-1.8495931931345542,-2.095518367719622,-0.4978145956399031,-1.6808195805775041,-1.5787051514620476,-0.11055912981802452,-0.3810897059449286,-0.35750474032822877,0.17381583826511923,-0.13408908169335876,18.862386199474763,0.0815391540526278,-1.3659095764160156,-9.919309616088867,-0.48726421252137797,-1.6493013737968538,-1.5426956692688654,0.0801987137107332,0.12399397393955196,0.016287548176085593,0.008044015145063492,0.025213934535865016,0.0289236991387752,-9.352844953536987,-31.414291381835938,-31.095713138580322,-2.43632106260689,-8.24650686898427,-7.713478346344327,-1.7972524166107178,-6.124821186065674,-6.19149112701416,-0.4773403835273449,-1.6167690882363472,-1.5055332447052823,-0.4978145956399031,-1.6808195805775041,-1.5787051514620476,-0.10235333809566498,-0.35333562959108933,-0.33148831732877,0.0064523910996372525,0.02183892237053802,0.020450457686715797,-0.5117666904783249,-1.7666781479554468,-1.6574415866438499,-0.09423429082569498,-0.32584189110536255,-0.3057718644812367,-0.11055912981802452,-0.3810897059449286,-0.35750474032822877
-133.65130615234375,13.428329467773438,22.85396957397461,-2.076513290405273,-6.118738651275635,-6.166866779327393,-2.769731283187866,-0.3474442958831787,4.7953948974609375,0.375,-0.7485887885029001,-1.6414371893310866,-1.9664249646592609,-0.504052835544094,-1.69449822382193,-1.5950920261675414,-0.1147595701142253,-0.395210524476778,-0.37079717387962496,0.0898052655018838,-0.22096052155391485,18.73884244815747,17.276630401611435,7.468070983886719,-10.063762664794869,-0.49260670292472775,-1.6648472009139705,-1.5606074255613172,0.10859067885608292,0.08345337271162237,0.026963048957051577,0.008652877861767794,0.02407806015721614,0.02786798717565602,-9.632105827331543,-31.061334133148193,-31.071088790893555,-2.4630335146236386,-8.324236004569853,-7.8030371278065855,-1.824642300605774,-6.118738651275635,-6.166866779327393,-0.4822038424839993,-1.6340752143153638,-1.5246892049246348,-0.504052835544094,-1.69449822382193,-1.5950920261675414,-0.10645839395337105,-0.36720935626537243,-0.3444933792084476,0.006524408976348396,0.022039474970084485,0.020682583024066857,-0.5322919697668552,-1.8360467813268622,-1.722466896042238,-0.09825265617972831,-0.33945918455799057,-0.3184776078556087,-0.1147595701142253,-0.395210524476778,-0.37079717387962496
-133.71348571777344,13.460803985595703,22.813194274902344,-2.080371141433716,-6.398630619049072,-6.176767349243164,-4.677786827087402,-0.2871740162372589,5.49474048614502,0.3833333333333333,-0.7295037297992417,-1.8566617028628958,-1.9105858734910397,-0.510132033292421,-1.7099704046791206,-1.6110135751133001,-0.11901067039166215,-0.409460277849104,-0.38422228700556915,0.05991236314336466,-0.021236848101519993,18.943391061201982,-33.5870361328125,-1.1880683898925781,-0.46294212341313923,-0.4981923410864121,-1.6800262389867222,-1.5778722995990502,0.11015528242861247,0.11618511238184355,0.030325709963935257,0.009252163421923075,0.023749654199979438,0.026771163582050943,-9.88416302204132,-31.168291091918945,-31.021663665771484,-2.4909617054320603,-8.40013119493361,-7.88936149799525,-1.824642300605774,-6.118738651275635,-6.166866779327393,-0.4868739144948219,-1.6494366818870057,-1.5433082468546444,-0.510132033292421,-1.7099704046791206,-1.6110135751133001,-0.11060999679575781,-0.3812095749235951,-0.3576423150384397,0.006601479579070582,0.02223730851701231,0.020905562361201883,-0.553049983978789,-1.9060478746179754,-1.7882115751921985,-0.10230993880051849,-0.3532044902403823,-0.3313385099127307,-0.11901067039166215,-0.409460277849104,-0.38422228700556915
-133.77903747558594,13.496429443359377,22.777362823486328,-2.1326587200164795,-6.504263877868652,-6.175496578216553,-5.196168422698975,-0.8977149128913879,5.289596080780029,0.39166666666666666,-0.7586050433212406,-1.8950442263631224,-1.844173281817124,-0.5164537419867646,-1.7257624398988134,-1.6263816857951094,-0.12331445157488519,-0.42384163151492743,-0.3977754677205284,0.0018988531916659043,0.04566923963601646,19.028912653425092,-12.67599105834961,0.15249252319335938,-6.274509429931641,-0.5041083065848007,-1.6952913905890834,-1.5944869873871432,0.08758112210465543,0.14712451650354857,0.028137520060155824,0.009653870407606659,0.023701999396535518,0.0257149195685555,-10.192179441452026,-31.547733783721924,-30.965949535369873,-2.5205415329240033,-8.476456952945417,-7.972434936935716,-1.9099876880645752,-6.118738651275635,-6.166866779327393,-0.49208832646082035,-1.6654063039680496,-1.5612424983977173,-0.5164537419867646,-1.7257624398988134,-1.6263816857951094,-0.11481089935063116,-0.3953370031785042,-0.3709297065999993,0.006681923893318324,0.02243478268185246,0.02111975413039852,-0.5740544967531558,-1.9766850158925209,-1.8546485329999964,-0.10641067485435865,-0.3670828761067827,-0.34434886406604504,-0.12331445157488519,-0.42384163151492743,-0.3977754677205284
-133.84764099121094,13.534461975097656,22.749244689941406,-2.170315980911255,-6.62120246887207,-6.173588275909424,-5.7960286140441895,-1.828305959701538,4.956124305725098,0.4,-0.7725502220380718,-1.9435471147219765,-1.7778173305143836,-0.5228916605037486,-1.7419586658548298,-1.6411968302160627,-0.1276718820790831,-0.43835795373038433,-0.41145210797232895,-0.04430546953768078,0.12726363796655052,19.11836327090124,-14.032630920410156,0.22899627685546875,-4.518871307373047,-0.5102689733933863,-1.7106018629664397,-1.6104778537508122,0.06712128290188266,0.19746860046767442,0.02529813201993047,0.009891337624646522,0.02428889899659354,0.02471387609876211,-10.452507734298706,-31.905546188354492,-30.92181968688965,-2.5513448669669314,-8.553009314832199,-8.05238926875406,-1.9926486015319824,-6.118738651275635,-6.166866779327393,-0.4978145956399031,-1.6808195805775041,-1.5787051514620476,-0.5228916605037486,-1.7419586658548298,-1.6411968302160627,-0.11906314079557605,-0.4095920187032244,-0.38435035538125606,0.006764350417586694,0.022637121325822566,0.02132563488345659,-0.5953157039778803,-2.047960093516122,-1.9217517769062802,-0.11055912981802452,-0.3810897059449286,-0.35750474032822877,-0.1276718820790831,-0.43835795373038433,-0.41145210797232895
-133.9131622314453,13.57685089111328,22.733455657958984,-2.1834678649902344,-6.757933139801025,-6.203098773956299,-5.746516227722168,-3.1599133014678955,4.257265567779541,0.4083333333333333,-0.761799439425447,-2.0104066068089317,-1.743310549514649,-0.5292399891656273,-1.7587120542449042,-1.6557244181286848,-0.13208221532213,-0.45301388751575855,-0.4252498114567347,-0.056418727235804836,0.21317878904679793,19.23692942426333,-16.40768051147461,-3.541259765625,-1.578226089477539,-0.5165540520985311,-1.7261803576999195,-1.6258817070841396,0.04951314373388977,0.24233464631863377,0.013913820971655977,0.00998287386695126,0.025367110239529672,0.02395024100607906,-10.643326997756958,-32.400768756866455,-30.895817756652832,-2.5827702604926555,-8.630901788499598,-8.129408535420698,-2.076513290405273,-6.118738651275635,-6.166866779327393,-0.504052835544094,-1.69449822382193,-1.5950920261675414,-0.5292399891656273,-1.7587120542449042,-1.6557244181286848,-0.12336775789639716,-0.42397685501739046,-0.39789936960695726,0.00684753976231361,0.022848502835823323,0.021525161671770363,-0.6168387894819858,-2.119884275086952,-1.9894968480347863,-0.1147595701142253,-0.395210524476778,-0.37079717387962496,-0.13208221532213,-0.45301388751575855,-0.4252498114567347
-133.96743774414062,13.62116527557373,22.72606468200684,-2.186085700988769,-7.030198097229004,-6.310939788818359,-4.660920143127441,-4.104937553405762,3.816354990005493,0.4166666666666667,-0.7406218765248718,-2.2100685275480023,-1.7866368735600888,-0.5354118381366679,-1.7771292919744708,-1.6706130587416854,-0.13654398063993556,-0.4678232982822125,-0.43917158694624875,-0.039624235649835325,0.35040710081604176,19.500524329471936,-32.67179489135742,-12.940921783447266,-0.31414031982416546,-0.5228258526170458,-1.7427065713304277,-1.6409859135989684,0.04467166749240074,0.2452960286731244,0.05881483105499298,0.010016103942811855,0.026459491394684887,0.02348755135677849,-10.752899408340454,-33.312228202819824,-31.0398907661438,-2.6141292630852293,-8.713532856652138,-8.204929567994842,-2.080371141433716,-6.398630619049072,-6.173588275909424,-0.510132033292421,-1.7099704046791206,-1.6110135751133001,-0.5354118381366679,-1.7771292919744708,-1.6706130587416854,-0.12772464000153919,-0.4384994097784773,-0.411574252220282,0.006930999994400802,0.023068930174664312,0.02172087232595313,-0.6386232000076959,-2.1924970488923865,-2.05787126110141,-0.11901067039166215,-0.409460277849104,-0.38422228700556915,-0.13654398063993556,-0.4678232982822125,-0.43917158694624875
-133.99542236328125,13.664746284484863,22.730207443237305,-2.1571695804595947,-7.065550327301025,-6.424681186676025,-1.806443810462952,-4.944264888763428,2.7393271923065186,0.425,-0.6883722559165646,-2.170966112734167,-1.8346615059313365,-0.5411482736026393,-1.7952206762472556,-1.6859019046244466,-0.14105354958662422,-0.48278347058427296,-0.4532207694847858,0.03613075063020525,0.32505864566579773,19.594934431188058,-4.242267608642578,-13.648967742919922,3.4699344635009233,-0.5290291006790896,-1.7597566256440547,-1.6559635795011978,0.021890570936530147,0.24729497071954964,0.10900753835147299,0.009791143726650443,0.027536210646923805,0.023473991304508827,-10.829697847366333,-33.97914791107178,-31.28780460357666,-2.645145503395448,-8.798783128220274,-8.279817897505989,-2.1326587200164795,-6.504263877868652,-6.173588275909424,-0.5164537419867646,-1.7257624398988134,-1.6263816857951094,-0.5411482736026393,-1.7952206762472556,-1.6859019046244466,-0.13213321584053161,-0.45316404832551116,-0.4253739487161253,0.007012558438514232,0.023298341664581293,0.021916486150100663,-0.6606660792026581,-2.265820241627556,-2.1268697435806265,-0.12331445157488519,-0.42384163151492743,-0.3977754677205284,-0.14105354958662422,-0.48278347058427296,-0.4532207694847858
-134.0150146484375,13.702126502990724,22.7393798828125,-2.090705633163452,-6.9224138259887695,-6.516948223114014,-0.9663226008415222,-4.921903133392334,1.8749490976333616,0.43333333333333335,-0.5996162281941233,-1.955045402381093,-1.8601529928695273,-0.546145075504257,-1.811512721267098,-1.701403179565026,-0.1456047585491597,-0.49787940992816543,-0.46739912931449434,0.15584752871358598,0.19901385762891016,19.54126828310659,17.176380157470703,-11.072044372558594,7.975673675537109,-0.534967367382588,-1.7769066819177115,-1.6709678782551811,0.03910660531327587,0.18752489512828335,0.14556780623223603,0.009246186682485046,0.02777336046411566,0.02381248088862807,-10.787744760513306,-34.397297859191895,-31.62925624847412,-2.67483683691294,-8.884533409588558,-8.354839391275906,-2.090705633163452,-6.62120246887207,-6.173588275909424,-0.5228916605037486,-1.7419586658548298,-1.6411968302160627,-0.546145075504257,-1.811512721267098,-1.701403179565026,-0.1365912772353865,-0.4679716040081588,-0.4392986810349185,0.007089502912584552,0.02352972485202093,0.022114917256126018,-0.6829563861769326,-2.339858020040794,-2.1964934051745924,-0.1276718820790831,-0.43835795373038433,-0.41145210797232895,-0.1456047585491597,-0.49787940992816543,-0.46739912931449434
-134.02243041992188,13.734380722045898,22.74594497680664,-2.0105271339416504,-7.020542621612549,-6.644576072692871,0.5904209017753601,-4.202989101409912,1.563454508781433,0.44166666666666665,-0.4986113426663634,-1.981518688738725,-1.9198400835960054,-0.5503001700264767,-1.8280253770065875,-1.717401846928326,-0.15019059329938034,-0.5131129547365536,-0.4817108113722304,0.27621295368365717,0.22527094767606504,19.676792216741326,-11.775455474853516,-15.31534194946289,9.621419906616211,-0.5404490692871337,-1.7941200241480633,-1.686208881597634,0.07493869024760817,0.12447442443567196,0.17233364696892553,0.00838144877259827,0.027366492344840947,0.02437464981929496,-10.627955913543701,-34.79663801193237,-32.10024404525757,-2.702245346435668,-8.970600120740317,-8.43104440798817,-2.0105271339416504,-6.757933139801025,-6.203098773956299,-0.5292399891656273,-1.7587120542449042,-1.6557244181286848,-0.5503001700264767,-1.8280253770065875,-1.717401846928326,-0.14109501947944597,-0.4829226042093927,-0.45335042171489875,0.007159111722826785,0.023757646317398573,0.02231803278020446,-0.7054750973972298,-2.4146130210469634,-2.2667521085744937,-0.13208221532213,-0.45301388751575855,-0.4252498114567347,-0.15019059329938034,-0.5131129547365536,-0.4817108113722304
-134.022705078125,13.75568962097168,22.74729347229004,-1.8743081092834477,-6.7647905349731445,-6.758325099945068,1.5742636919021606,-2.927322626113892,1.1198160648345947,0.45,-0.34360828934825527,-1.6561822436206848,-1.9643135681479666,-0.5531635724377122,-1.8418268957034265,-1.7337711266628926,-0.15480028973636129,-0.5284615122007488,-0.49615890409442115,0.4789517823542435,0.028919344351010078,19.54242769759105,30.690250396728516,-13.649883270263672,16.34628295898432,-0.5452337859415506,-1.8107429924397678,-1.7018182233044754,0.1256391170302062,0.12170770889548703,0.17642549429513404,0.007115867480342915,0.025672482835922536,0.02495546591083025,-10.318796157836914,-34.80349540710449,-32.65547037124634,-2.726168929707753,-9.053714962198839,-8.509091116522377,-1.8743081092834477,-6.7647905349731445,-6.310939788818359,-0.5354118381366679,-1.7771292919744708,-1.6706130587416854,-0.5531635724377122,-1.8418268957034265,-1.7337711266628926,-0.1456386343622922,-0.4980121291463907,-0.4675322402424361,0.007217914097204778,0.023971311117845253,0.022525986835928838,-0.728193171811461,-2.4900606457319534,-2.3376612012121805,-0.13654398063993556,-0.4678232982822125,-0.43917158694624875,-0.15480028973636129,-0.5284615122007488,-0.49615890409442115
-134.0349578857422,13.766979217529297,22.73734474182129,-1.8254626989364624,-6.77319860458374,-6.923344135284424,0.4824569225311279,-1.0728777647018433,1.094995617866516,0.4583333333333333,-0.2777401473509131,-1.5978184017837078,-2.058419954715882,-0.5554780736656365,-1.8551420490516242,-1.750924626285525,-0.15942927368357493,-0.543921029276179,-0.5107499426468005,0.5937940942106364,-0.043115754524471785,19.648027089986748,-1.0089683532714844,-19.802284240722656,5.861449241638237,-0.5492470330473443,-1.8263455438551983,-1.7178805368132433,0.14049237820384905,0.13817347193857096,0.19677919378297723,0.005711529799940139,0.023772372702043295,0.025684567630112256,-9.958173155784607,-34.54649591445923,-33.2678747177124,-2.7462351652367216,-9.131727719275991,-8.589402684066217,-1.8254626989364624,-6.7647905349731445,-6.424681186676025,-0.5411482736026393,-1.7952206762472556,-1.6859019046244466,-0.5554780736656365,-1.8551420490516242,-1.750924626285525,-0.1502156929710201,-0.5132316753451839,-0.48184791138254646,0.007264895296561293,0.024169110950389965,0.02274000481803202,-0.7510784648551005,-2.5661583767259195,-2.4092395569127323,-0.14105354958662422,-0.48278347058427296,-0.4532207694847858,-0.15942927368357493,-0.543921029276179,-0.5107499426468005
-134.05035400390625,13.762788772583008,22.71402740478516,-1.8281235694885252,-6.831186771392822,-6.898867130279541,0.4647574424743652,1.266918420791626,0.9192563891410828,0.4666666666666667,-0.26395355550757715,-1.5891783784181976,-1.9625750142424172,-0.5576776866281996,-1.868385202205109,-1.7672794180708784,-0.16407658773880993,-0.5594909059612216,-0.5254772711307245,0.5727902115137674,0.013458094174763196,19.672720031792366,-6.958580017089844,2.9372406005859375,-0.31930446624753195,-0.5525529156524563,-1.8409784490467689,-1.7341560395025297,0.11898763140930446,0.1084775400989338,0.17153253885421552,0.0045091020970280645,0.02229612485599953,0.02613400405256578,-9.629127144813538,-34.312132358551025,-33.74206066131592,-2.762764578262282,-9.204892245233845,-8.670780197512649,-1.8254626989364624,-6.7647905349731445,-6.516948223114014,-0.546145075504257,-1.811512721267098,-1.701403179565026,-0.5576776866281996,-1.868385202205109,-1.7672794180708784,-0.15482030060145724,-0.5285731624205737,-0.49629921171173413,0.0073020937048237835,0.02435467517814957,0.022957779995439374,-0.7741015030072862,-2.6428658121028685,-2.4814960585586707,-0.1456047585491597,-0.49787940992816543,-0.46739912931449434,-0.16407658773880993,-0.5594909059612216,-0.5254772711307245
-134.07281494140625,13.749889373779297,22.68132781982422,-1.8032325506210327,-6.963846683502197,-6.822455406188965,-0.0969626903533935,2.8472273349761963,0.8516221642494202,0.475,-0.22298384346899658,-1.6543061728883712,-1.8163825875650348,-0.5595358853237746,-1.8821710869791788,-1.7824159396339203,-0.1687393867831747,-0.5751756650193814,-0.5403307372943406,0.544102643149429,0.1647716180130929,19.707954771567504,-15.919189453125,9.16940689086914,2.9869222640990944,-0.5552310776163599,-1.8551101221891853,-1.7503585915163087,0.08358768324208266,0.11555707158576249,0.11284235124283633,0.003645774932262901,0.021322242562649595,0.025863097934548662,-9.341654062271118,-34.35356521606445,-34.04756784439087,-2.7761553880817997,-9.275550610945926,-8.751792957581543,-1.8032325506210327,-6.7647905349731445,-6.644576072692871,-0.5503001700264767,-1.8280253770065875,-1.717401846928326,-0.5595358853237746,-1.8821710869791788,-1.7824159396339203,-0.15944722624826024,-0.5440324134388168,-0.5108855333077034,0.00733237393357883,0.02453235317042633,0.023173234794344404,-0.7972361312413012,-2.7201620671940843,-2.554427666538517,-0.15019059329938034,-0.5131129547365536,-0.4817108113722304,-0.1687393867831747,-0.5751756650193814,-0.5403307372943406
-134.09088134765625,13.725844383239746,22.652912139892575,-1.757659077644348,-7.093455791473389,-6.787091255187988,0.290900856256485,3.350751638412476,-0.3767469823360443,0.48333333333333334,-0.16210467906658965,-1.7148844551816875,-1.712905291468406,-0.5608867576493295,-1.8964617907723595,-1.796690150396157,-0.1734134430969191,-0.5909795132758178,-0.5553031552143085,0.5505074430039235,0.295715188919454,19.76392295968287,-15.553092956542969,4.2436981201171875,5.468816757202175,-0.5573483951409305,-1.8687974049423395,-1.7662162522098748,0.04238983198029746,0.14099282822656026,0.07101030205376466,0.0030993708596649488,0.02155354169727332,0.024893466312098416,-9.088786005973816,-34.42647838592529,-34.190083026885986,-2.7867419757046523,-9.343987024711698,-8.831081261049373,-1.757659077644348,-6.7647905349731445,-6.758325099945068,-0.5531635724377122,-1.8418268957034265,-1.7337711266628926,-0.5608867576493295,-1.8964617907723595,-1.796690150396157,-0.16409179620776798,-0.5596057251466698,-0.525604002076119,0.007358067663744494,0.024711952964247653,0.02338049061037359,-0.82045898103884,-2.798028625733349,-2.6280200103805953,-0.15480028973636129,-0.5284615122007488,-0.49615890409442115,-0.1734134430969191,-0.5909795132758178,-0.5553031552143085
-134.10194396972656,13.695855140686035,22.6278133392334,-1.7673757076263428,-7.21319055557251,-6.8557538986206055,1.0512593984603882,3.6359150409698486,-1.2305718660354614,0.49166666666666664,-0.15699054598337758,-1.7642132127947843,-1.7138862201351808,-0.562195012199191,-1.9111635675456493,-1.81097253556395,-0.17809840153191236,-0.6069058763386982,-0.5703945930106747,0.5525266699142855,0.3351735461193584,19.896499361739682,-14.368171691894531,-8.239517211914062,-1.1659955978393821,-0.5591546830932262,-1.882664739310784,-1.7816565339900863,0.032561378214726856,0.18186324307278462,0.05530653976330367,0.002649904428558093,0.02215958704193874,0.023649343969630535,-8.981853604316711,-34.87487840652466,-34.28751182556152,-2.7957734154661313,-9.41332369655392,-8.908282669950431,-1.757659077644348,-6.77319860458374,-6.787091255187988,-0.5554780736656365,-1.8551420490516242,-1.750924626285525,-0.562195012199191,-1.9111635675456493,-1.81097253556395,-0.1687514185668782,-0.5752945979742596,-0.5404511398593698,0.007379992149852295,0.024896591769734328,0.02357745270416114,-0.843757092834391,-2.876472989871298,-2.702255699296849,-0.15942927368357493,-0.543921029276179,-0.5107499426468005,-0.17809840153191236,-0.6069058763386982,-0.5703945930106747
-134.09466552734375,13.658343315124512,22.60807991027832,-1.7921205759048462,-7.140148162841797,-6.883944988250732,3.0800352096557617,3.74774694442749,-2.241617202758789,0.5,-0.16678274378280378,-1.6211127296800276,-1.6742890277277267,-0.563584868397381,-1.924672840292983,-1.8249249441283477,-0.18279494210189054,-0.6229448166744731,-0.585602300878411,0.5450001106626308,0.2534426132347994,19.87085743206569,8.765087127685547,-3.3829307556152344,-2.96938419342041,-0.5607760420395752,-1.8965708975590558,-1.796456597558651,0.02824161165408305,0.1516035298315503,0.045521611417012324,0.0022941793033428182,0.022385626383776818,0.0227467670084073,-8.948511481285095,-35.241827964782715,-34.24811267852783,-2.803880210197876,-9.48285448779528,-8.982282987793255,-1.757659077644348,-6.831186771392822,-6.787091255187988,-0.5576776866281996,-1.868385202205109,-1.7672794180708784,-0.563584868397381,-1.924672840292983,-1.8249249441283477,-0.17342455225054132,-0.5910993554539185,-0.5554216115056919,0.0073990609615974005,0.02508312112440387,0.02376697405544412,-0.8671227612527066,-2.9554967772695924,-2.7771080575284595,-0.16407658773880993,-0.5594909059612216,-0.5254772711307245,-0.18279494210189054,-0.6229448166744731,-0.585602300878411
-134.07460021972656,13.614924430847168,22.58976936340332,-1.8075522184371948,-7.030503749847412,-6.81563138961792,4.594744682312012,4.184763908386231,-2.937004566192627,0.5083333333333333,-0.16709301930242515,-1.4436921729966228,-1.5392388526424066,-0.5649773102249012,-1.936703608401288,-1.8377519345670343,-0.18750308635376473,-0.6390840134111505,-0.6009169003331363,0.5085270273790281,0.2048495829020183,19.752207810589695,13.157329559326172,8.1976318359375,-1.851797103881836,-0.5622359667589155,-1.9102345787982915,-1.8105511008578818,0.022068891587328363,0.09636061741310385,0.037528651177815876,0.0021474974902590087,0.02172087248650328,0.021968065327044862,-8.927940130233765,-35.441144943237305,-34.16487693786621,-2.8111798337945775,-9.551172893991458,-9.05275550428941,-1.757659077644348,-6.963846683502197,-6.787091255187988,-0.5595358853237746,-1.8821710869791788,-1.7824159396339203,-0.5649773102249012,-1.936703608401288,-1.8377519345670343,-0.1781098519735323,-0.6070179769439041,-0.5705095373461743,0.00741695569228838,0.02526396955448155,0.02394998161361422,-0.8905492598676614,-3.035089884719521,-2.8525476867308712,-0.1687393867831747,-0.5751756650193814,-0.5403307372943406,-0.18750308635376473,-0.6390840134111505,-0.6009169003331363
-134.04747009277344,13.566313743591309,22.57449531555176,-1.8254860639572144,-7.049675941467285,-6.933542251586914,5.331923961639404,4.300157070159912,-3.5601999759674072,0.5166666666666666,-0.169796083650394,-1.3965747792422798,-1.5907008551375084,-0.5663922775886544,-1.9483417315616405,-1.8510077750265135,-0.19222302200033684,-0.6553201945074976,-0.6163419651250239,0.5346321655406121,0.13317617437252455,19.849958712967624,-2.3006629943847656,-14.149303436279297,-2.1520614624023438,-0.5636072452118914,-1.9234687077147838,-1.8242694679364007,0.0279715226349253,0.07362662844039203,0.05737718475585486,0.002181137252771376,0.0204699162434528,0.021415944924500198,-8.950193643569946,-35.52697420120239,-34.27596378326416,-2.818036226059457,-9.61734353857392,-9.121347339682004,-1.757659077644348,-7.030503749847412,-6.787091255187988,-0.5608867576493295,-1.8964617907723595,-1.796690150396157,-0.5663922775886544,-1.9483417315616405,-1.8510077750265135,-0.1828065790169647,-0.6230468828415274,-0.585711782912311,0.007435130339891805,0.025434302143399225,0.024128388826438227,-0.9140328950848235,-3.115234414207637,-2.9285589145615547,-0.1734134430969191,-0.5909795132758178,-0.5553031552143085,-0.19222302200033684,-0.6553201945074976,-0.6163419651250239
-134.01966857910156,13.50699234008789,22.5600528717041,-1.9117250442504885,-6.98676061630249,-6.989247798919678,5.410379886627197,5.181567668914795,-4.626007556915283,0.525,-0.24009884700541595,-1.268451433048022,-1.5791983500308167,-0.5683931013136996,-1.958912160170374,-1.8641677612767702,-0.196959631177951,-0.6716444625089173,-0.631876696468997,0.4801933328705216,0.01449576770149841,19.8642680282962,7.549839019775391,-6.684665679931641,-10.348677635192898,-0.5651085139447655,-1.9359587815943868,-1.837764990112523,0.05509418636812897,0.09129387682774004,0.06769056718391636,0.0024116263117108343,0.01886083850007006,0.020947435699235867,-9.104259610176086,-35.420279026031494,-34.47812032699585,-2.8255425697238272,-9.679793907971934,-9.188824950562616,-1.7673757076263428,-6.98676061630249,-6.81563138961792,-0.562195012199191,-1.9111635675456493,-1.81097253556395,-0.5683931013136996,-1.958912160170374,-1.8641677612767702,-0.1875158166331711,-0.6391798726881474,-0.6010264911632486,0.00745516500679897,0.02559129077340418,0.024302930639138194,-0.9375790831658555,-3.195899363440737,-3.0051324558162427,-0.17809840153191236,-0.6069058763386982,-0.5703945930106747,-0.196959631177951,-0.6716444625089173,-0.631876696468997
-133.99783325195312,13.442453384399414,22.543865203857425,-1.821760177612305,-6.6873273849487305,-6.898566722869873,4.719910144805908,5.702958583831787,-4.866666793823242,0.5333333333333333,-0.1344089587564692,-0.9075721834281163,-1.422317954284467,-0.5695131759700035,-1.9664752616989416,-1.8760204108958074,-0.20170557431103436,-0.6880317563564085,-0.6475101998931287,0.5469425990259632,-0.11658481426989281,19.573024239576547,35.93198776245117,10.881729125976562,10.795783996582031,-0.566572146698928,-1.9470211204250454,-1.8507745651788945,0.04661293487816209,0.17230026743245194,0.06399315000982678,0.0024220454583454665,0.016789141817931293,0.020338243723497684,-9.158644080162048,-34.894415855407715,-34.52093315124512,-2.83286073349464,-9.735105602125227,-9.253872825894472,-1.7921205759048462,-6.6873273849487305,-6.81563138961792,-0.563584868397381,-1.924672840292983,-1.8249249441283477,-0.5695131759700035,-1.9664752616989416,-1.8760204108958074,-0.1922372511889955,-0.6554050486916895,-0.6164496125397394,0.0074752882144569896,0.025730675611219198,0.024472374110861683,-0.9611862559449775,-3.2770252434584473,-3.0822480626986968,-0.18279494210189054,-0.6229448166744731,-0.585602300878411,-0.20170557431103436,-0.6880317563564085,-0.6475101998931287
-133.9814910888672,13.379400253295898,22.526092529296875,-1.7894207239151,-6.798973083496094,-6.9985833168029785,4.122649192810059,5.771694183349609,-4.678926467895508,0.5416666666666666,-0.0875546674183767,-0.9600311216730297,-1.456763395392409,-0.57024279819849,-1.9744755210462168,-1.888160105857411,-0.20645759762935512,-0.7044857190317936,-0.6632448674419406,0.5969591992907971,-0.09293965727832702,19.71167823623861,-13.397483825683594,-12.001991271972656,3.8807344436645774,-0.5679037326591497,-1.956981656575692,-1.8634215975247073,0.04719842932840519,0.15955460172260605,0.07458738847762553,0.0021880048984299445,0.01488067722329369,0.019901728810668762,-9.155944228172302,-34.55324077606201,-34.63557147979736,-2.8395186632957485,-9.78490828287846,-9.317107987623537,-1.7894207239151,-6.6873273849487305,-6.81563138961792,-0.5649773102249012,-1.936703608401288,-1.8377519345670343,-0.57024279819849,-1.9744755210462168,-1.888160105857411,-0.19696978229448842,-0.6717132291631535,-0.6319781258524453,0.00749327255312943,0.025854073453773285,0.024638151283143825,-0.9848489114724421,-3.358566145815767,-3.1598906292622266,-0.18750308635376473,-0.6390840134111505,-0.6009169003331363,-0.20645759762935512,-0.7044857190317936,-0.6632448674419406
-133.9762725830078,13.30670166015625,22.50763511657715,-1.8989346027374268,-7.03333854675293,-6.938999652862549,2.786867380142212,6.571959972381592,-5.3885178565979,0.55,-0.18207121602930276,-1.1329483400715974,-1.3319708450530996,-0.5717600583320676,-1.9839167572134802,-1.89925986289952,-0.21122226478212236,-0.7210183586752392,-0.6790720329661032,0.4355552190151665,0.06160332911249719,19.861368891955543,-28.123855590820312,7.1500396728515625,-13.1416654586792,-0.569260282280583,-1.9664242863381305,-1.8757231831912045,0.05308346341466995,0.16009110306306437,0.04159925392000378,0.0020159133660138523,0.013731554381672336,0.019059904628419787,-9.247326612472534,-34.55607557296753,-34.75893974304199,-2.846301411402915,-9.832121431690652,-9.378615915956022,-1.7894207239151,-6.6873273849487305,-6.898566722869873,-0.5663922775886544,-1.9483417315616405,-1.8510077750265135,-0.5717600583320676,-1.9839167572134802,-1.89925986289952,-0.2017136179801599,-0.6881000982159712,-0.6476091523790387,0.007509853097512563,0.025968322748370912,0.02479690202271978,-1.0085680899007996,-3.440500491079856,-3.2380457618951937,-0.19222302200033684,-0.6553201945074976,-0.6163419651250239,-0.21122226478212236,-0.7210183586752392,-0.6790720329661032
-133.96401977539062,13.232749938964844,22.49507713317871,-1.9364006519317627,-6.818850040435791,-6.891241550445557,3.484407663345337,6.234607696533203,-6.044742584228516,0.5583333333333333,-0.20347301201690882,-0.8575221534484925,-1.2206114608153404,-0.5734556667655418,-1.9910627751588843,-1.9094316250729813,-0.21600106200516855,-0.7376105484682299,-0.6949839631750447,0.39484429070186655,-0.08159907010532515,19.68790529632666,25.73862075805664,5.7309722900390625,-4.4959259033203125,-0.5706729601159605,-1.9749684950575794,-1.8874079532004981,0.06283660129979902,0.14249599305593122,0.049742041358611586,0.001978202057928452,0.012935234573302345,0.017999015669456307,-9.358241200447083,-34.325249671936035,-34.716639041900635,-2.8533648005798025,-9.874842475287897,-9.43703976600249,-1.7894207239151,-6.6873273849487305,-6.891241550445557,-0.5683931013136996,-1.958912160170374,-1.8641677612767702,-0.5734556667655418,-1.9910627751588843,-1.9094316250729813,-0.20646922598112627,-0.7045581690081176,-0.6633375519890429,0.007526157412752542,0.026076029565015733,0.024946785000362813,-1.0323461299056313,-3.5227908450405883,-3.3166877599452143,-0.196959631177951,-0.6716444625089173,-0.631876696468997,-0.21600106200516855,-0.7376105484682299,-0.6949839631750447
-133.9644317626953,13.161518096923828,22.482818603515625,-1.8940342664718628,-6.77164363861084,-6.897008419036865,1.93150532245636,5.92799186706543,-5.767274856567383,0.5666666666666667,-0.14526617155342647,-0.7522613458234053,-1.1638214653772954,-0.5746662181951537,-1.9973316197074127,-1.9191301372844587,-0.22078994715679484,-0.7542549786324584,-0.7109767143190819,0.42938406791176115,-0.10726537049877731,19.649480269083778,5.664768218994141,-0.6920242309570312,5.083966255187988,-0.5719275834922513,-1.9826523869649872,-1.8984004284020357,0.060469300213802125,0.12833220107218304,0.04536601804168625,0.0021523875333620286,0.012413436809922023,0.017013789608728368,-9.340550422668457,-34.110132694244385,-34.62439966201782,-2.8596379174612565,-9.913261934824936,-9.492002142010179,-1.7894207239151,-6.6873273849487305,-6.891241550445557,-0.5695131759700035,-1.9664752616989416,-1.8760204108958074,-0.5746662181951537,-1.9973316197074127,-1.9191301372844587,-0.21123528917689507,-0.7210802722328259,-0.6791575555590599,0.007543971953594399,0.02617918356244709,0.0250883943293267,-1.0561764458844753,-3.6054013611641293,-3.395787777795299,-0.20170557431103436,-0.6880317563564085,-0.6475101998931287,-0.22078994715679484,-0.7542549786324584,-0.7109767143190819
-133.9697723388672,13.087675094604492,22.47072410583496,-1.9386615753173828,-7.029225826263428,-6.958978652954102,1.3605386018753052,6.187464714050293,-6.068089008331299,0.575,-0.17421493832343105,-0.9506671120848544,-1.163346406205025,-0.576118009347849,-2.005253845641453,-1.9288246906695006,-0.22559093056802693,-0.7709654273461372,-0.7270502534079945,0.3736245839627028,0.015827551635011063,19.88253505684441,-30.909862518310547,-7.436428070068359,-5.355277061462402,-0.5732485501678204,-1.9904081037534893,-1.9089612843567743,0.06066744740074312,0.12969713676207673,0.04464504412517061,0.0023203786734627887,0.011882176690837397,0.01600771927740703,-9.457451820373535,-34.45203113555908,-34.68481159210205,-2.8662427508391017,-9.952040518767447,-9.544806421783871,-1.7894207239151,-6.77164363861084,-6.891241550445557,-0.57024279819849,-1.9744755210462168,-1.888160105857411,-0.576118009347849,-2.005253845641453,-1.9288246906695006,-0.21601236042829358,-0.7376670064307718,-0.695065566262033,0.007563282636659129,0.026277957256339492,0.025221724188033978,-1.0800618021414679,-3.6883350321538586,-3.4753278313101648,-0.20645759762935512,-0.7044857190317936,-0.6632448674419406,-0.22559093056802693,-0.7709654273461372,-0.7270502534079945
-133.96983337402344,13.014575004577637,22.45872688293457,-2.024860382080078,-6.857969284057617,-6.910802364349365,1.9639843702316284,6.061801433563232,-5.950520038604736,0.5833333333333334,-0.24381155621917783,-0.7201696750978455,-1.0532921846029657,-0.5781497723163421,-2.0112552596006017,-1.937602125541192,-0.23040884533732978,-0.7877258878428088,-0.7431969377875044,0.28369625986079006,-0.11255397532469226,19.74971023832544,20.550785064697266,5.781154632568359,-10.343856811523438,-0.5748299449913908,-1.9977640514643664,-1.9188496882935304,0.0524526939955445,0.12173887456789664,0.028804585105307992,0.002450510888620655,0.01089668955707501,0.015196170574881067,-9.692891478538513,-34.511027336120605,-34.59703063964844,-2.874149724956954,-9.988820257321832,-9.594248441467652,-1.8940342664718628,-6.77164363861084,-6.891241550445557,-0.5717600583320676,-1.9839167572134802,-1.89925986289952,-0.5781497723163421,-2.0112552596006017,-1.937602125541192,-0.22080260996988849,-0.7543150401929747,-0.7110559803311458,0.007583630548858764,0.026368697276778846,0.025348307759516017,-1.1040130498494425,-3.7715752009648735,-3.555279901655729,-0.21122226478212236,-0.7210183586752392,-0.6790720329661032,-0.23040884533732978,-0.7877258878428088,-0.7431969377875044
-133.9840087890625,12.949625968933104,22.448266983032227,-1.967496395111084,-6.736035346984863,-6.83416223526001,0.2522873878479004,5.307896614074707,-5.429961681365967,0.5916666666666667,-0.16979038467339613,-0.5421341609973922,-0.916507681976384,-0.5795646921886204,-2.01577304427558,-1.9452396895576618,-0.23523855110556827,-0.8045239965451053,-0.7594072685338182,0.30610465072454185,-0.1326875838910589,19.59977434195215,14.632072448730469,9.196815490722656,6.883678436279297,-0.5763908717627014,-2.004135308876786,-1.928045653625159,0.04829500656290881,0.1140396862054902,0.044730455745014455,0.002491544674223469,0.010056876156891667,0.01426127989009115,-9.76145327091217,-34.21372413635254,-34.4921932220459,-2.8819543588135073,-10.020676544383932,-9.640228268125794,-1.8940342664718628,-6.736035346984863,-6.83416223526001,-0.5734556667655418,-1.9910627751588843,-1.9094316250729813,-0.5795646921886204,-2.01577304427558,-1.9452396895576618,-0.22560586723457768,-0.7710161677669479,-0.7271230274446887,0.0076043209757421315,0.026452149113841698,0.025466993305789835,-1.1280293361728884,-3.8550808388347395,-3.6356151372234438,-0.21600106200516855,-0.7376105484682299,-0.6949839631750447,-0.23523855110556827,-0.8045239965451053,-0.7594072685338182
-134.00582885742188,12.88807487487793,22.436182022094727,-2.0156052112579346,-6.979532718658447,-6.772499084472656,-0.6477839350700378,5.111691951751709,-4.940678596496582,0.6,-0.20150925835316746,-0.7291453034374822,-0.7965344586495187,-0.5812439360082301,-2.021849255137559,-1.9518774767130744,-0.2400822505723035,-0.8213727403379183,-0.7756729141730938,0.19741883921679493,0.057337964228527515,19.739804799060117,-29.219684600830078,7.399578094482422,-5.77305793762207,-0.5779485256112391,-2.010292604872521,-1.9365348239531772,0.05438565793979036,0.1274719399472956,0.07244355498428694,0.0026285241149342,0.00945904747541514,0.012987302307215216,-9.840657830238342,-34.374406814575195,-34.373450756073,-2.8897426280561955,-10.051463024362606,-9.682674119765887,-1.8940342664718628,-6.736035346984863,-6.772499084472656,-0.5746662181951537,-1.9973316197074127,-1.9191301372844587,-0.5812439360082301,-2.021849255137559,-1.9518774767130744,-0.23042210494800464,-0.7877686061408855,-0.7432608176442985,0.007626195848736895,0.026530608803631554,0.025574898234050243,-1.1521105247400232,-3.9388430307044278,-3.716304088221493,-0.22078994715679484,-0.7542549786324584,-0.7109767143190819,-0.2400822505723035,-0.8213727403379183,-0.7756729141730938
-134.02529907226562,12.833553314208984,22.425020217895508,-2.113058090209961,-6.805525302886963,-6.766169548034668,-0.3646058142185211,4.500267505645752,-4.467955112457275,0.6083333333333333,-0.281531541651558,-0.4987110384371416,-0.7331220561623049,-0.5835900321886598,-2.0260051804578687,-1.9579868271810936,-0.24494550084054234,-0.8382561168417338,-0.7919894710662696,0.11740639004944972,-0.09805003124674702,19.635367241204584,20.880889892578125,0.7595443725585938,-11.694345474243164,-0.5797332884099402,-2.0160273170226124,-1.9443061619325044,0.0666149376764346,0.12136620596771579,0.08492221269781175,0.002861936378678568,0.008251630057475173,0.011510614008227813,-10.05968165397644,-34.40828847885132,-34.2426118850708,-2.8986664420497013,-10.080136585113062,-9.721530809662521,-1.9386615753173828,-6.736035346984863,-6.766169548034668,-0.576118009347849,-2.005253845641453,-1.9288246906695006,-0.5835900321886598,-2.0260051804578687,-1.9579868271810936,-0.23525321568475416,-0.8045688337827407,-0.7594633689937361,0.00764996506979123,0.026599248475611386,0.025670540822008425,-1.1762660784237708,-4.0228441689137036,-3.7973168449686807,-0.22559093056802693,-0.7709654273461372,-0.7270502534079945,-0.24494550084054234,-0.8382561168417338,-0.7919894710662696
-134.05357360839844,12.787663459777832,22.409284591674805,-2.0064027309417725,-6.731738567352295,-6.777698040008545,-1.327534556388855,4.113351821899414,-3.2879457473754883,0.6166666666666667,-0.1577197973479243,-0.37123449520176255,-0.6881685755934512,-0.5849043638332259,-2.0290988012512168,-1.9637215653110391,-0.2498197038724859,-0.8551652735188273,-0.8083538174438616,0.2179747458077695,-0.11593794357174034,19.56798094806887,8.854408264160156,-1.3834190368652344,12.798643112182617,-0.5814905593070157,-2.0207963081445652,-1.9512855368608122,0.05360470546152549,0.10237026166013254,0.06142087293776988,0.002783545071055379,0.007304745497849179,0.010291993287505598,-10.12742280960083,-34.110801219940186,-34.061331272125244,-2.9074527965350785,-10.103981540722826,-9.756427684304061,-1.967496395111084,-6.731738567352295,-6.766169548034668,-0.5781497723163421,-2.0112552596006017,-1.937602125541192,-0.5849043638332259,-2.0290988012512168,-1.9637215653110391,-0.24009897034564592,-0.8214088030172787,-0.7757240818009095,0.007673069717439236,0.026659745162849167,0.025756157744656262,-1.2004948517282297,-4.107044015086394,-3.8786204090045473,-0.23040884533732978,-0.7877258878428088,-0.7431969377875044,-0.2498197038724859,-0.8551652735188273,-0.8083538174438616
-134.0820770263672,12.746474266052246,22.39043617248535,-2.032392978668213,-6.947469711303711,-6.762107372283936,-1.2479127645492554,4.036086559295654,-2.685844659805298,0.625,-0.1674288829366155,-0.5327032619414931,-0.6167713725026172,-0.5862996045243644,-2.0335379951007293,-1.9688613267485608,-0.2547055339101889,-0.8721114234780001,-0.8247609951667663,0.15418815879929337,0.03729784727853262,19.714488255623994,-25.887737274169922,1.8708801269530184,-3.1188297271728516,-0.58312052574862,-2.0252528552445908,-1.9575373771022861,0.053688561187853645,0.11697947666390301,0.029472881159263067,0.00272371978331353,0.006809040792400544,0.009353416703698507,-10.134955406188965,-34.20030164718628,-33.912636280059814,-2.9156026287431005,-10.126264276222955,-9.78768688551143,-1.967496395111084,-6.731738567352295,-6.762107372283936,-0.5795646921886204,-2.01577304427558,-1.9452396895576618,-0.5862996045243644,-2.0335379951007293,-1.9688613267485608,-0.2449583080602178,-0.838285910144317,-0.7920368932767619,0.00769563767535986,0.026716105959879693,0.025834005354467938,-1.224791540301089,-4.191429550721585,-3.9601844663838093,-0.23523855110556827,-0.8045239965451053,-0.7594072685338182,-0.2547055339101889,-0.8721114234780001,-0.8247609951667663
-134.09988403320312,12.713658332824709,22.3704776763916,-2.084852457046509,-6.8440842628479,-6.769889831542969,0.0366795808076858,3.381718873977661,-1.812347769737244,0.6333333333333333,-0.203133134809941,-0.3747388169513508,-0.5694501019036533,-0.5879923806477806,-2.036660818575324,-1.9736067442644247,-0.25960547041558707,-0.8890835969661278,-0.8412077180356364,0.1159899256802144,-0.05906999609350637,19.65898799717749,12.406253814697266,-0.9338951110838778,-6.295137405395508,-0.5848060634404522,-2.0294304101045393,-1.9632107880436387,0.04632407173449716,0.10197655767905649,0.005957095237240275,0.002576840562160118,0.005883602942884691,0.008602312183815321,-10.25231146812439,-34.308350563049316,-33.84836387634277,-2.9240303172022606,-10.147152050522697,-9.816053940218193,-2.0064027309417725,-6.731738567352295,-6.762107372283936,-0.5812439360082301,-2.021849255137559,-1.9518774767130744,-0.5879923806477806,-2.036660818575324,-1.9736067442644247,-0.24983169192222152,-0.8551978302285214,-0.8083969831771256,0.00771698929953533,0.026765062313264178,0.025905589259276874,-1.2491584596111076,-4.275989151142607,-4.041984915885628,-0.2400822505723035,-0.8213727403379183,-0.7756729141730938,-0.25960547041558707,-0.8890835969661278,-0.8412077180356364
-134.12271118164062,12.690240859985352,22.343563079833984,-2.010418653488159,-6.869811058044434,-6.756403923034668,-0.3581894636154175,3.229890823364258,-0.4916139841079712,0.6416666666666666,-0.11232167873654175,-0.34717701352377617,-0.5015410272751026,-0.5889283946372518,-2.039553960354689,-1.9777862528250505,-0.26451320703756415,-0.9060798799690836,-0.8576892701425118,0.1693079542560615,-0.0032203887300493216,19.65156519830271,-3.0872154235839844,1.6183090209960938,8.932056427001953,-0.5863429551662565,-2.0329713511479657,-1.9683925432660339,0.0473465292714647,0.07963005995022433,0.00803448047802026,0.0021826080099083037,0.0054951837100078735,0.007838150157816175,-10.247124910354614,-34.1986289024353,-33.832268714904785,-2.9317147758312823,-10.164856755739828,-9.841962716330169,-2.0064027309417725,-6.731738567352295,-6.756403923034668,-0.5835900321886598,-2.0260051804578687,-1.9579868271810936,-0.5889283946372518,-2.039553960354689,-1.9777862528250505,-0.25471788321527367,-0.8721392581547545,-0.8248002543710091,0.007735125210389674,0.026810728362572537,0.02597078431756708,-1.2735894160763683,-4.360696290773772,-4.124001271855046,-0.24494550084054234,-0.8382561168417338,-0.7919894710662696,-0.26451320703756415,-0.9060798799690836,-0.8576892701425118
-134.12940979003906,12.670619010925291,22.30946350097656,-1.9513556957244875,-7.164116859436035,-6.830127716064453,1.7417807579040527,3.469537734985352,0.480202853679657,0.65,-0.03819671399856861,-0.5861201013305211,-0.5209616036697788,-0.5892467005872398,-2.0444382945324433,-1.9821275995222987,-0.2694235962091245,-0.9231168657568539,-0.874207000138531,0.21465521906095641,0.18080572619851487,19.894851831878718,-35.31669616699219,-8.846855163574219,7.087554931640598,-0.5874742888459725,-2.0366579739628805,-1.9732206977342748,0.048232911307560286,0.1610171608390337,0.029556624198865292,0.0018377080817329194,0.005826566176337772,0.007238160278384556,-10.08542251586914,-34.557220458984375,-33.89622688293457,-2.9373714442298624,-10.183289869814402,-9.866103488671374,-1.9513556957244875,-6.731738567352295,-6.756403923034668,-0.5849043638332259,-2.0290988012512168,-1.9637215653110391,-0.5892467005872398,-2.0444382945324433,-1.9821275995222987,-0.2596135022889901,-0.8891114079377787,-0.8412437601854614,0.00775002830456926,0.026859078966129595,0.026031044740821907,-1.2980675114449505,-4.445557039688893,-4.206218800927307,-0.2498197038724859,-0.8551652735188273,-0.8083538174438616,-0.2694235962091245,-0.9231168657568539,-0.874207000138531
-134.11300659179688,12.653332710266112,22.26793670654297,-1.906877279281616,-7.211399555206299,-6.905966758728027,4.73472785949707,3.944041967391968,1.2269092798233032,0.6583333333333333,0.020291482160399887,-0.5758030595982477,-0.5418642200963815,-0.5890776049025698,-2.0492366533624287,-1.9866431346897686,-0.27433257624997925,-0.9401938378682075,-0.8907623595942791,0.27895518663850133,0.18059038260504243,19.969843133301055,-5.673923492431641,-9.100685119628906,5.3374099731445845,-0.5883089370598412,-2.0406855443851226,-1.9778050116100208,0.06956314355891127,0.16983107504083125,0.06375679912176331,0.0012238876149687705,0.006240411834371614,0.006971593887620554,-9.985897064208984,-35.03688144683838,-34.02449560165405,-2.941544685299206,-10.203427721925614,-9.889025058050104,-1.906877279281616,-6.8440842628479,-6.756403923034668,-0.5862996045243644,-2.0335379951007293,-1.9688613267485608,-0.5892467005872398,-2.0492366533624287,-1.9866431346897686,-0.2645160767644888,-0.9061171208076546,-0.8577254686155449,0.00775899837758383,0.026910703010974747,0.02608913064471726,-1.322580383822444,-4.530585604038273,-4.288627343077724,-0.2547055339101889,-0.8721114234780001,-0.8247609951667663,-0.27433257624997925,-0.9401938378682075,-0.8907623595942791
-134.08750915527344,12.640379905700684,22.2249755859375,-1.8852604627609253,-7.020012378692627,-6.836628437042236,5.833219051361084,3.6578023433685294,1.7758731842041016,0.6666666666666666,0.0551902700597775,-0.32869691569649984,-0.4181699442998239,-0.588617685985405,-2.051975794326566,-1.9901278842256005,-0.27923772363319094,-0.9572936361542622,-0.9073467586294924,0.29208433075900997,0.0908461316263603,19.784001349494368,22.966461181640625,8.320598602294922,2.5940179824828835,-0.5887725533520494,-2.04437310423029,-1.9820583231054285,0.08110546296141558,0.1664998206739367,0.059842826964758594,0.0004936628164045996,0.006406300694614501,0.006629911058029364,-9.838764548301697,-35.109424114227295,-34.09901666641235,-2.943862766760247,-10.22186552115145,-9.910291615527143,-1.8852604627609253,-6.8440842628479,-6.756403923034668,-0.5879923806477806,-2.036660818575324,-1.9736067442644247,-0.5892467005872398,-2.051975794326566,-1.9901278842256005,-0.2694225147090892,-0.923153563342907,-0.8742426213080903,0.0077608422900326485,0.026963819031436843,0.026144335900617596,-1.347112573545446,-4.615767816714535,-4.371213106540451,-0.25960547041558707,-0.8890835969661278,-0.8412077180356364,-0.27923772363319094,-0.9572936361542622,-0.9073467586294924
-134.06951904296875,12.63225269317627,22.180198669433597,-1.8435693979263303,-7.043620586395264,-6.769346237182617,5.010477542877197,3.454975843429565,2.280588865280152,0.675,0.10946481070816416,-0.2986522336162416,-0.29831618681239025,-0.5877054792295036,-2.0544645629400344,-1.992613852449037,-0.2841352692934368,-0.9744141741787625,-0.9239518740665678,0.2991855236097455,0.16009895724606807,19.745806153265626,-2.8329849243164062,8.073863983154297,5.002927780151394,-0.5887151730683939,-2.047933853103232,-1.985859744742351,0.06398851880143924,0.13396381651074687,0.059956562502575604,0.0006099850725552829,0.005981769816391953,0.005990802639448862,-9.597481489181519,-35.30896043777466,-34.098473072052,-2.9435758653419697,-10.239669265516161,-9.929298723711755,-1.8435693979263303,-6.869811058044434,-6.756403923034668,-0.5877054792295036,-2.039553960354689,-1.9777862528250505,-0.5892467005872398,-2.0544645629400344,-1.992613852449037,-0.27432847448465913,-0.940219678785434,-0.8907914525142765,0.007756791772442855,0.02701303518628667,0.026193945401890635,-1.3716423724232958,-4.70109839392717,-4.453957262571382,-0.26451320703756415,-0.9060798799690836,-0.8576892701425118,-0.2841352692934368,-0.9744141741787625,-0.9239518740665678
-134.04493713378906,12.628986358642578,22.13433837890625,-1.922153353691101,-7.248484134674072,-6.790381908416748,5.798295021057129,3.0950961112976074,2.843257188796997,0.6833333333333333,0.043616722370587224,-0.4485700696014314,-0.26778859460061355,-0.587342006543082,-2.05820264685338,-1.994845424070709,-0.28902978601462914,-0.9915658629025407,-0.9405755859338236,0.21415793864988605,0.2581309464429435,19.920983484294833,-24.58362579345703,-2.524280548095703,-9.430074691772488,-0.58839789544956,-2.0516635904029705,-1.9892715789914828,0.040497391003892345,0.10137031309670205,0.052444685069671655,0.0008404053466494455,0.005215292454069895,0.005022871728278263,-9.50921618938446,-35.6876335144043,-34.13245105743408,-2.9419894772478,-10.258317952014853,-9.946357894957414,-1.8435693979263303,-7.020012378692627,-6.769346237182617,-0.587342006543082,-2.0444382945324433,-1.9821275995222987,-0.5892467005872398,-2.05820264685338,-1.994845424070709,-0.2792317902800721,-0.9573168753721253,-0.9073687156725387,0.007749965017657307,0.0270561933041651,0.0262353211164797,-1.3961589514003605,-4.786584376860627,-4.536843578362694,-0.2694235962091245,-0.9231168657568539,-0.874207000138531,-0.28902978601462914,-0.9915658629025407,-0.9405755859338236
-134.00717163085938,12.62758731842041,22.09100341796875,-1.992055296897888,-7.013144493103027,-6.735525131225586,7.346597671508789,2.7741241455078125,2.743515014648437,0.6916666666666667,-0.012457149077391039,-0.15918877032200296,-0.1622648564339757,-0.5874458161187269,-2.0595292199393964,-1.9961976312076588,-0.29392516781561856,-1.0087286064020355,-0.9572105661938874,0.15804644150624042,0.09417698859024384,19.734007799148436,28.24075698852539,6.582813262939453,-8.388233184814426,-0.5880377185558574,-2.054681775484361,-1.9920855853285548,0.054579289378049727,0.11325759148247402,0.0660932382017422,0.0007685168351067575,0.004269459075396242,0.0038163320058213174,-9.549915790557861,-35.53666114807129,-34.037848472595215,-2.940188592779287,-10.273408877421806,-9.960427926642774,-1.8435693979263303,-7.013144493103027,-6.735525131225586,-0.587342006543082,-2.0492366533624287,-1.9866431346897686,-0.5890776049025698,-2.0595292199393964,-1.9961976312076588,-0.28413210460137095,-0.9744392235011616,-0.9239694288836102,0.007743983169705859,0.02709151983092248,0.026266711761239066,-1.4206605230068547,-4.872196117505808,-4.619847144418051,-0.27433257624997925,-0.9401938378682075,-0.8907623595942791,-0.29392516781561856,-1.0087286064020355,-0.9572105661938874
-133.97039794921875,12.6256103515625,22.047897338867188,-2.053064346313477,-6.791381359100342,-6.648298263549805,7.18865966796875,2.7584736347198486,2.726353168487549,0.7,-0.0587037579898082,0.11211907180090286,-0.026174408995099263,-0.5879350141019754,-2.0585948943410557,-1.996415751282618,-0.29882462626646833,-1.0258835638548778,-0.9738473641212426,0.09459288144015153,-0.036787533527155546,19.532525527871677,26.611576080322266,10.46722412109375,-7.321085929870685,-0.5878092003957386,-2.0565534236800866,-1.9940401086471247,0.0838213032834415,0.16203473040080393,0.07049833391742119,0.0005075811133745145,0.0032039402540855015,0.0026592678096879424,-9.696102857589722,-35.11664295196533,-33.78017997741699,-2.939046001978693,-10.282767118400432,-9.970200543235624,-1.8435693979263303,-6.791381359100342,-6.648298263549805,-0.587342006543082,-2.051975794326566,-1.9901278842256005,-0.588617685985405,-2.0595292199393964,-1.996415751282618,-0.2890305146046687,-0.9915771686984958,-0.9405864297890026,0.007741841439514587,0.02711563053084993,0.02628800089549414,-1.4451525730233437,-4.957885843492479,-4.702932148945013,-0.27923772363319094,-0.9572936361542622,-0.9073467586294924,-0.29882462626646833,-1.0258835638548778,-0.9738473641212426
-133.9430389404297,12.63127899169922,21.998252868652344,-2.104235887527466,-6.687713146209717,-6.563440322875977,6.259722709655762,2.719835042953491,3.863357305526733,0.7083333333333334,-0.09434476709642725,0.2619825152509847,0.10550458562623355,-0.5887212204944455,-2.056411706713964,-1.9955365464023993,-0.3037306364372554,-1.0430203280774941,-0.9904768353412626,0.027834205889094216,-0.08041148962743165,19.41337565221821,12.440185546875,10.182952880859375,-6.140584945678658,-0.5878299072975467,-2.0574406061575656,-1.9951218410824842,0.10347989827359526,0.22111263450832216,0.09427574272695488,0.0005492135694456205,0.002011893515170724,0.0015305164044424103,-9.915078282356262,-34.78434371948242,-33.50699186325073,-2.9391495364877334,-10.287203030787829,-9.975609205412422,-1.8435693979263303,-6.687713146209717,-6.563440322875977,-0.587342006543082,-2.0544645629400344,-1.992613852449037,-0.5887212204944455,-2.0595292199393964,-1.996415751282618,-0.29392909716548166,-1.0087225070831423,-0.9572124451313568,0.0077453002984822685,0.02712127660114697,0.026297770156810066,-1.4696454858274082,-5.043612535415711,-4.786062225656784,-0.2841352692934368,-0.9744141741787625,-0.9239518740665678,-0.3037306364372554,-1.0430203280774941,-0.9904768353412626
-133.9203338623047,12.64107894897461,21.942218780517575,-2.255476236343384,-6.639938831329346,-6.445633888244629,5.841801166534424,2.8724701404571533,4.790566921234131,0.7166666666666667,-0.22853216094790518,0.35409746712500567,0.2678475989743152,-0.5906256551690114,-2.0534608944879222,-1.9933044830776134,-0.30865251689699713,-1.0601325021982269,-1.0070877060335761,-0.1491230360352151,-0.09994147000014991,19.33312611386043,5.732917785644531,14.136772155761719,-18.148841857910156,-0.5884139424854483,-2.057239872467144,-1.9952599672081999,0.12618282098010525,0.252927896832825,0.13728827779947486,0.0013510903460353034,0.0023963860151316294,0.0012537255338003438,-10.326985120773315,-34.380661964416504,-33.183279514312744,-2.9420697124272417,-10.286199362335719,-9.976299836041,-1.922153353691101,-6.639938831329346,-6.445633888244629,-0.587342006543082,-2.0534608944879222,-1.9933044830776134,-0.5906256551690114,-2.0595292199393964,-1.996415751282618,-0.29883254668619375,-1.0258661726870348,-0.9738396115247585,0.00775563738591101,0.02710467725904787,0.026292839386517795,-1.4941627334309686,-5.129330863435174,-4.869198057623793,-0.28902978601462914,-0.9915658629025407,-0.9405755859338236,-0.30865251689699713,-1.0601325021982269,-1.0070877060335761
-133.90872192382812,12.657078742980955,21.889196395874023,-2.324784755706787,-6.6814680099487305,-6.392222881317139,4.460616111755371,2.148265600204468,5.023616790771484,0.725,-0.27912558045770464,0.356293765782298,0.3637941349147811,-0.5929517016728256,-2.0504917797730697,-1.990272865286657,-0.313593781077604,-1.0772199336963357,-1.0236733132442983,-0.23533027089893865,-0.0639156154147009,19.341405287284456,-4.983501434326172,6.409320831298828,-8.317022323608398,-0.589535881511397,-2.0556976990510814,-1.9943454554513895,0.139668584706842,0.15069591004243585,0.14124622114464758,0.0022610979844400717,0.00373125280559504,0.0025886768653453915,-10.729616522789001,-33.81364583969116,-32.785120487213135,-2.947679407556985,-10.278488495255408,-9.971727277256948,-1.992055296897888,-6.639938831329346,-6.392222881317139,-0.5874458161187269,-2.0504917797730697,-1.990272865286657,-0.5929517016728256,-2.0595292199393964,-1.996415751282618,-0.3037453456987887,-1.042996986845794,-0.9904591569868535,0.0077736992212584415,0.02707410047927302,0.026273130683958285,-1.5187267284939434,-5.21498493422897,-4.952295784934267,-0.29392516781561856,-1.0087286064020355,-0.9572105661938874,-0.313593781077604,-1.0772199336963357,-1.0236733132442983
-133.91319274902344,12.679295539855955,21.838132858276367,-2.294882535934448,-6.76984977722168,-6.297224521636963,2.4503984451293945,1.4206037521362305,5.459072113037109,0.7333333333333333,-0.23038878598772694,0.31217503755484355,0.4995351851141212,-0.5948716082227233,-2.047890321126779,-1.9861100720773728,-0.31855104447946003,-1.0942856863723922,-1.0402242305116098,-0.25385725483549987,0.06943412667611694,19.332768711462617,-10.605812072753906,11.399803161621094,3.5882663726807174,-0.5910210399321962,-2.053369919288558,-1.992327943625332,0.12062532456602852,0.06391680815343498,0.1387567075897926,0.0028949691232776622,0.004326395573056449,0.004208450014441048,-11.032443761825562,-33.570351123809814,-32.34681987762451,-2.955105199660981,-10.26684959644279,-9.96163971812666,-2.053064346313477,-6.639938831329346,-6.297224521636963,-0.5879350141019754,-2.047890321126779,-1.9861100720773728,-0.5948716082227233,-2.0585948943410557,-1.996415751282618,-0.30867052103155695,-1.0601084028398653,-1.007061889850398,0.00779755828392298,0.027038092024622717,0.026239043638539072,-1.5433526051577848,-5.300542014199326,-5.03530944925199,-0.29882462626646833,-1.0258835638548778,-0.9738473641212426,-0.31855104447946003,-1.0942856863723922,-1.0402242305116098
-133.92230224609375,12.712491989135742,21.795564651489254,-2.2403409481048584,-6.724799633026123,-6.340329170227051,1.7062795162200928,-0.1619588136672973,5.666112899780273,0.7416666666666667,-0.15793947466187852,0.4012897188486324,0.49620870793448546,-0.5961877705115723,-2.044546240136374,-1.9819749995112521,-0.3235192759003898,-1.111323571706862,-1.0567406888408704,-0.1772218996538331,0.03473586404629534,19.31837617435111,5.406017303466797,-5.172557830810547,6.544990539550728,-0.5926715912141156,-2.050560188447622,-1.989439793271059,0.08484440667339006,0.048971718669298746,0.10329230932589407,0.0030443938921714624,0.0046355907689081275,0.005468327535408679,-11.219720363616943,-33.503769397735596,-32.03885078430176,-2.963357956070578,-10.252800942238109,-9.947198966355295,-2.104235887527466,-6.639938831329346,-6.297224521636963,-0.5887212204944455,-2.044546240136374,-1.9819749995112521,-0.5961877705115723,-2.056411706713964,-1.9955365464023993,-0.31360945095834125,-1.077196404410262,-1.0236405547943235,0.00782282548197527,0.02699948430759915,0.026193831990417894,-1.5680472547917064,-5.38598202205131,-5.118202773971618,-0.3037306364372554,-1.0430203280774941,-0.9904768353412626,-0.3235192759003898,-1.111323571706862,-1.0567406888408704
-133.93099975585938,12.750722885131836,21.7586612701416,-2.2815194129943848,-7.110878944396973,-6.505897045135498,1.5790023803710938,-1.108635187149048,5.692520618438721,0.75,-0.181530059159845,0.06158844421578902,0.3716598133751132,-0.597700521004571,-2.044033003101242,-1.9788778343997928,-0.3285001135754279,-1.128357180066039,-1.0732313374608686,-0.1836833735999529,0.1937941679938314,19.710774252267132,-46.32951736450195,-19.868144989013672,-4.941415786743164,-0.5944674513161408,-2.0480844477250773,-1.9861080508705378,0.03317353192073963,0.18828938263928188,0.08278080169355698,0.0027673306256678484,0.003989744008249444,0.00588414104765233,-11.397003889083862,-33.92693519592285,-31.98130750656128,-2.972337256580704,-10.240422238625387,-9.930540254352689,-2.2403409481048584,-6.639938831329346,-6.297224521636963,-0.5906256551690114,-2.044033003101242,-1.9788778343997928,-0.597700521004571,-2.0534608944879222,-1.9933044830776134,-0.3185633463859758,-1.094263774807971,-1.0401914552182447,0.007845728955615998,0.026966802379220958,0.02614488119439144,-1.592816731929879,-5.471318874039856,-5.2009572760912235,-0.30865251689699713,-1.0601325021982269,-1.0070877060335761,-0.3285001135754279,-1.128357180066039,-1.0732313374608686
-133.91822814941406,12.79169750213623,21.73187065124512,-2.253086805343628,-6.966339111328125,-6.472973346710205,3.9173004627227774,-2.145115375518799,5.052267551422119,0.7583333333333333,-0.1356069095060488,0.2539597983386015,0.44619040226003026,-0.5988305785837881,-2.0419166714484205,-1.975159581047626,-0.3334903683969595,-1.1453731523281092,-1.0896910006362654,-0.14822280394122306,0.1232686069946211,19.58079830743505,17.34477996826172,3.9508438110351562,3.4119129180908203,-0.596108435999096,-2.045775603117177,-1.98247907046454,0.033618568034980006,0.18172273464458222,0.08761881925595771,0.002315480697185498,0.003396825587716468,0.005931385261708423,-11.394614458084106,-34.25333547592163,-32.008646965026855,-2.98054217999548,-10.228878015585884,-9.9123953523227,-2.2403409481048584,-6.6814680099487305,-6.297224521636963,-0.5929517016728256,-2.0419166714484205,-1.975159581047626,-0.5988305785837881,-2.0504917797730697,-1.990272865286657,-0.32353091668596823,-1.1113119048339477,-1.0567121141387825,0.007864946327056506,0.026939119955290917,0.026095522515083333,-1.6176545834298413,-5.556559524169739,-5.283560570693913,-0.313593781077604,-1.0772199336963357,-1.0236733132442983,-0.3334903683969595,-1.1453731523281092,-1.0896910006362654
-133.90982055664062,12.833060264587402,21.70986557006836,-2.151752471923828,-6.7640061378479,-6.538111209869385,3.2384204864501958,-2.624767780303955,4.754040241241455,0.7666666666666666,-0.018081274121529933,0.5006003147798417,0.4223940762465883,-0.5989812558681341,-2.0377450021585886,-1.9716396304122377,-0.3384818788625273,-1.1623543606794309,-1.1061213308897007,-0.0007986352760497634,-0.021044799609161013,19.460299083680525,24.279956817626953,-7.8165435791015625,12.160120010375977,-0.5973143468381578,-2.043226247594281,-1.9787524234896563,0.05612887689894251,0.16553843339033422,0.1060202519289711,0.0017651360479156838,0.003738510996684553,0.0056576509929556,-11.221582174301147,-34.3358736038208,-32.1545352935791,-2.9865717341907887,-10.216131237971403,-9.893762117448281,-2.151752471923828,-6.724799633026123,-6.297224521636963,-0.5948716082227233,-2.0377450021585886,-1.9716396304122377,-0.5989812558681341,-2.047890321126779,-1.9861100720773728,-0.32850853624295295,-1.1283387902305666,-1.073201717667863,0.00787925514476816,0.026908922344664032,0.026048408751800013,-1.6425426812147648,-5.641693951152833,-5.366008588339315,-0.31855104447946003,-1.0942856863723922,-1.0402242305116098,-0.3384818788625273,-1.1623543606794309,-1.1061213308897007
-133.89630126953125,12.87531566619873,21.690073013305664,-2.175697326660156,-6.948434829711914,-6.600398063659668,3.822937488555908,-2.839824676513672,4.596487522125244,0.775,-0.026681653720455945,0.3597590512963933,0.40198781911737935,-0.5992036029824712,-2.034747010064452,-1.9682897319195929,-0.34347524222071457,-1.1793105857633013,-1.122523745322364,-0.009276692627068706,0.06251213008777051,19.637291906487658,-22.13144302368164,-7.474422454833984,-2.8733825683593217,-0.5981807457901074,-2.040597585381815,-1.9751883554581002,0.05457204389181461,0.15840172678459855,0.09674000723181529,0.0012561749665551153,0.00422789604661093,0.00547394000045867,-11.102396965026855,-34.514458656311035,-32.45770883560181,-2.9909037289505367,-10.202987926909076,-9.875941777290501,-2.151752471923828,-6.724799633026123,-6.340329170227051,-0.5961877705115723,-2.034747010064452,-1.9682897319195929,-0.5992036029824712,-2.044546240136374,-1.9819749995112521,-0.33349337579120386,-1.1453437701087483,-1.089661620630014,0.00788888720830027,0.026874819818806125,0.026002808113725052,-1.6674668789560192,-5.726718850543742,-5.44830810315007,-0.3235192759003898,-1.111323571706862,-1.0567406888408704,-0.34347524222071457,-1.1793105857633013,-1.122523745322364
-133.88511657714844,12.916154861450195,21.66728782653809,-2.163618803024292,-6.837153911590576,-6.600616455078125,3.5974040031433105,-2.513063669204712,4.770100593566895,0.7833333333333333,0.0006542526539203841,0.5146803955127295,0.44363580335229535,-0.5991981508770219,-2.0304580067685123,-1.9645927668916572,-0.34846856014468974,-1.196231069153039,-1.1388953517131277,0.020802843294208524,-0.01073273953905274,19.556563988023655,13.353710174560547,-0.02620697021484375,1.4494228363036576,-0.5987828218631973,-2.037779938708243,-1.9717119089341815,0.05825336838113804,0.13270681679182086,0.0568257423173743,0.0006250173692564701,0.005454904584934571,0.005604365127096669,-11.025674819946289,-34.62681293487549,-32.71799612045288,-2.9939141093159867,-10.188899693541215,-9.858559544670907,-2.151752471923828,-6.7640061378479,-6.472973346710205,-0.597700521004571,-2.0304580067685123,-1.9645927668916572,-0.5992036029824712,-2.044033003101242,-1.9788778343997928,-0.33848323264006386,-1.1623252695979838,-1.1060925532044652,0.007893324497154556,0.026829603246125735,0.025956111608660265,-1.6924161632003192,-5.811626347989919,-5.5304627660223264,-0.3285001135754279,-1.128357180066039,-1.0732313374608686,-0.34846856014468974,-1.196231069153039,-1.1388953517131277
-133.88583374023438,12.962430953979492,21.640121459960938,-2.219255924224853,-6.71606969833374,-6.4300537109375,2.3167691230773926,-2.549845933914185,5.542754173278809,0.7916666666666666,-0.03954486960417691,0.6768791090182225,0.6540853937219113,-0.5995276914570566,-2.0248173475266937,-1.959142055277308,-0.3534646242401652,-1.2131045470490947,-1.1552215355071054,-0.07955383827187834,-0.008481524748664883,19.36875928278242,14.530105590820312,20.467529296875,-6.6764545440673295,-0.5991482559536945,-2.0339368075933333,-1.9677647531096845,0.04231810715403632,0.11029134497029991,0.07621900509463385,0.0002637859161680748,0.006597416314891363,0.006212611600072916,-10.963411331176756,-34.232003688812256,-32.64215278625488,-2.995741279768472,-10.169684037966666,-9.838823765548423,-2.151752471923828,-6.71606969833374,-6.4300537109375,-0.5988305785837881,-2.0248173475266937,-1.959142055277308,-0.5995276914570566,-2.0419166714484205,-1.975159581047626,-0.34347613477301125,-1.179274742994595,-1.1224905928137128,0.00789544735813724,0.026774946831285677,0.025904622204244828,-1.7173806738650563,-5.896373714972975,-5.612452964068564,-0.3334903683969595,-1.1453731523281092,-1.0896910006362654,-0.3534646242401652,-1.2131045470490947,-1.1552215355071054
