Euler_X,Euler_Y,Euler_Z,Acc_X,Acc_Y,Acc_Z,Gyr_X,Gyr_Y,Gyr_Z,time_seconds,filtered_accel_x,filtered_accel_y,filtered_accel_z,Vel_X,Vel_Y,Vel_Z,Displacement_X,Displacement_Y,Displacement_Z,Acc_Global_X,Acc_Global_Y,Acc_Global_Z,Dy_dt,Dz_dt,Dx_dt,Vel_X_Roll_Mean,Vel_Y_Roll_Mean,Vel_Z_Roll_Mean,Acc_Global_X_Roll_Std,Acc_Global_Y_Roll_Std,Acc_Global_Z_Roll_Std,Vel_X_Roll_Std,Vel_Y_Roll_Std,Vel_Z_Roll_Std,Acc_Global_X_Roll_Sum,Acc_Global_Y_Roll_Sum,Acc_Global_Z_Roll_Sum,Vel_X_Roll_Sum,Vel_Y_Roll_Sum,Vel_Z_Roll_Sum,Acc_Global_X_Roll_Max,Acc_Global_Y_Roll_Max,Acc_Global_Z_Roll_Max,Vel_X_Roll_Max,Vel_Y_Roll_Max,Vel_Z_Roll_Max,Vel_X_Roll_Min,Vel_Y_Roll_Min,Vel_Z_Roll_Min,Displacement_X_Roll_Mean,Displacement_Y_Roll_Mean,Displacement_Z_Roll_Mean,Displacement_X_Roll_Std,Displacement_Y_Roll_Std,Displacement_Z_Roll_Std,Displacement_X_Roll_Sum,Displacement_Y_Roll_Sum,Displacement_Z_Roll_Sum,Displacement_X_Roll_Max,Displacement_Y_Roll_Max,Displacement_Z_Roll_Max,Displacement_X_Roll_Min,Displacement_Y_Roll_Min,Displacement_Z_Roll_Min
-133.3780975341797,17.46805191040039,24.53480529785156,-2.842606782913208,-7.601709365844727,-7.181534767150879,-4.60720682144165,3.1508967876434326,-4.19538164138794,0.0,-2.8186258934518653,-7.537579584295148,-7.120949675871621,0.0,0.0,0.0,0.0,0.0,0.0,0.3884960649811756,0.17856487510014754,20.638574495736137,,,,,,,,,,,,,,,,,,,,,,,,,,,,,,,,,,,,,,,,,,
-133.4272003173828,17.412952423095703,24.521839141845703,-2.845141649246216,-7.729991436004639,-7.246278762817383,-3.778995513916016,4.67473840713501,-4.478085041046143,0.008333333333333333,-2.773380559154641,-7.537062638511767,-7.0644900574562834,-0.02311150465962201,-0.06280885532093139,-0.05887075047880236,-0.00019259587216351675,-0.0005234071276744283,-0.000490589587323353,0.393538553689395,0.23585559349237495,20.77109730178586,-15.393848419189453,-7.769279479980469,-0.3041839599609375,,,,,,,,,,,,,,,,,,,,,,,,,,,,,,,,,,,,,,,
-133.47579956054688,17.346111297607422,24.50893783569336,-2.8262882232666016,-7.866150379180908,-7.31338357925415,-3.7216079235076895,5.554652214050293,-5.419729709625244,0.016666666666666666,-2.7072896435924787,-7.543283525318731,-7.010306417225972,-0.04567225168955934,-0.12566955136525415,-0.11728997062235212,-0.0005731979695765112,-0.0015706533890515462,-0.0014680060091762873,0.41525647413437977,0.30496455563648206,20.904339320872722,-16.339073181152344,-8.05257797241211,2.262411117553711,,,,,,,,,,,,,,,,,,,,,,,,,,,,,,,,,,,,,,,
-133.5238494873047,17.27117156982422,24.503080368041992,-2.661032199859619,-7.851628303527832,-7.358362674713135,-3.905850887298584,5.727137565612793,-6.752923965454102,0.025,-2.496751075587403,-7.398902238158221,-6.934082981550308,-0.0664785106527877,-0.18732707001657267,-0.1750739954686047,-0.001127185558349742,-0.0031317123058563186,-0.00292695597141466,0.565113000079722,0.3362773303232846,20.87536151656655,1.7426490783691406,-5.397491455078125,19.83072280883789,,,,,,,,,,,,,,,,,,,,,,,,,,,,,,,,,,,,,,,
-133.5790252685547,17.18728256225586,24.49801445007324,-2.594970703125,-7.719761371612549,-7.414278984069824,-4.790630340576172,6.323347568511963,-7.50689172744751,0.03333333333333333,-2.387744981245816,-7.139518947818101,-6.868979657927605,-0.08637638549650284,-0.24682306124839018,-0.2323154926180014,-0.0018469887708205991,-0.0051885711495929035,-0.004862918409898005,0.6426813030028037,0.23853729415590869,20.80227829616796,15.824031829833984,-6.709957122802734,7.927379608154297,-0.04432773049969438,-0.12452570759022967,-0.11671004183755211,0.11759770219174753,0.10845507135521815,0.09155147269678487,0.034189289681901054,0.09774659062833535,0.09183943208339145,-13.770039558410645,-38.769240856170654,-36.51383876800537,-0.2216386524984719,-0.6226285379511484,-0.5835502091877606,-2.594970703125,-7.601709365844727,-7.181534767150879,0.0,0.0,0.0,-0.08637638549650284,-0.24682306124839018,-0.2323154926180014,-0.0007479936341820738,-0.0020828687944350393,-0.0019496939955624612,0.0007500152499959814,0.0021082034743308614,0.0019751096883737305,-0.003739968170910369,-0.010414343972175198,-0.009748469977812306,0.0,0.0,0.0,-0.0018469887708205991,-0.0051885711495929035,-0.004862918409898005
-133.6503448486328,17.099607467651367,24.487625122070312,-2.65285873413086,-7.752495288848877,-7.302693367004394,-6.545281887054443,7.167900085449219,-7.485990524291992,0.041666666666666664,-2.4031253155161387,-7.0466644132809035,-6.637879882839378,-0.10640242979247067,-0.30554526469239773,-0.2876311583083296,-0.0027336756857578547,-0.007734781688696218,-0.007259844729134085,0.5144516744810502,0.3081848581380967,20.76940393667495,-3.928070068359375,13.390274047851669,-6.946563720703178,-0.06560821645818851,-0.18563476052870923,-0.17423627349921805,0.11235814387000496,0.06956713534574442,0.06303446651999263,0.03278587845284353,0.09592631334165004,0.09053229076624417,-13.580291509628296,-38.920026779174805,-36.63499736785889,-0.32804108229094253,-0.9281738026435461,-0.8711813674960902,-2.594970703125,-7.719761371612549,-7.246278762817383,-0.02311150465962201,-0.06280885532093139,-0.05887075047880236,-0.10640242979247067,-0.30554526469239773,-0.2876311583083296,-0.0012947287713336447,-0.003629825132174283,-0.003401662941389278,0.0010172184724898947,0.002890436599886308,0.0027138329979533955,-0.006473643856668224,-0.018149125660871415,-0.01700831470694639,-0.00019259587216351675,-0.0005234071276744283,-0.000490589587323353,-0.0027336756857578547,-0.007734781688696218,-0.007259844729134085
-133.73223876953125,17.006738662719727,24.47843360900879,-2.67183256149292,-7.873330593109131,-7.1428303718566895,-7.854157447814941,7.4245686531066895,-7.942245006561279,0.05,-2.379308443833892,-7.0416944816954175,-6.361819130655413,-0.1262300001577531,-0.3642260520398595,-0.340646317730458,-0.0037855923537391304,-0.01076999878902838,-0.010098564043554569,0.38683411913579,0.48540821208866675,20.753618588842986,-14.500236511230469,19.183559417724503,-2.2768592834472123,-0.08623191555781473,-0.24591819987249486,-0.23059138694954914,0.08628963952500279,0.0712576609348383,0.10143407568615281,0.03178836511274714,0.09413502467627675,0.08844205383301236,-13.406982421875,-39.0633659362793,-36.53154897689819,-0.43115957778907366,-1.2295909993624743,-1.1529569347477457,-2.594970703125,-7.719761371612549,-7.1428303718566895,-0.04567225168955934,-0.12566955136525415,-0.11728997062235212,-0.1262300001577531,-0.3642260520398595,-0.340646317730458,-0.0020133280676487677,-0.005679143464445074,-0.005323257832635521,0.0012793273035561004,0.0036657950654767914,0.0034413318581704164,-0.010066640338243837,-0.02839571732222537,-0.026616289163177605,-0.0005731979695765112,-0.0015706533890515462,-0.0014680060091762873,-0.0037855923537391304,-0.01076999878902838,-0.010098564043554569
-133.80921936035156,16.915794372558594,24.479372024536133,-2.6866650581359863,-7.837447166442871,-7.056912422180176,-7.62640905380249,6.517632484436035,-8.642244338989258,0.058333333333333334,-2.351434021042854,-6.880373169678713,-6.162778480277969,-0.14582528366644354,-0.42156249512051547,-0.39200280506610774,-0.005000803050959493,-0.014283019581699342,-0.013365254085772132,0.31407613494630066,0.5088122072920892,20.676748661622796,4.306011199951172,10.31015396118164,-1.7798995971679688,-0.10626252195319157,-0.3050967886235471,-0.28553395383830027,0.035067163342807316,0.06689503358226695,0.15012412139587442,0.03139330283976741,0.09263674437788981,0.08574816939712333,-13.267359256744385,-39.03466272354126,-36.27507781982422,-0.5313126097659578,-1.5254839431177356,-1.4276697691915015,-2.594970703125,-7.719761371612549,-7.056912422180176,-0.0664785106527877,-0.18732707001657267,-0.1750739954686047,-0.14582528366644354,-0.42156249512051547,-0.39200280506610774,-0.0028988490839253643,-0.008221616702974633,-0.00770270744795469,0.0015392374836012657,0.004432221693083288,0.0041494847447062465,-0.01449424541962682,-0.04110808351487316,-0.03851353723977345,-0.001127185558349742,-0.0031317123058563186,-0.00292695597141466,-0.005000803050959493,-0.014283019581699342,-0.013365254085772132
-133.86428833007812,16.823299407958984,24.483482360839844,-2.6294753551483154,-7.722744464874268,-7.186212539672852,-5.101152896881104,6.312437534332275,-8.94633674621582,0.06666666666666667,-2.252264170263558,-6.642587311087037,-6.179568652035507,-0.1645941517519732,-0.4769173893795741,-0.44349921049973695,-0.006372420982225937,-0.018257331159862458,-0.017061080839936606,0.41700175710068355,0.3770829235694339,20.667278267676345,13.764324188232422,-15.516014099121094,6.862764358520508,-0.1258856501730287,-0.36301485249614746,-0.3392189968445268,0.036188153622137,0.07012042360887115,0.13988844158146194,0.030970282235265493,0.09111307157233403,0.08329495020108932,-13.235802412033081,-38.905778884887695,-36.102927684783936,-0.6294282508651434,-1.8150742624807372,-1.6960949842226338,-2.594970703125,-7.719761371612549,-7.056912422180176,-0.08637638549650284,-0.24682306124839018,-0.2323154926180014,-0.1645941517519732,-0.4769173893795741,-0.44349921049973695,-0.003947896168700603,-0.01124674047377586,-0.01052953242165908,0.0017959272868161933,0.005187242169293864,0.004839668062080449,-0.019739480843503014,-0.056233702368879306,-0.0526476621082954,-0.0018469887708205991,-0.0051885711495929035,-0.004862918409898005,-0.006372420982225937,-0.018257331159862458,-0.017061080839936606
-133.8917236328125,16.7280216217041,24.484455108642575,-2.503325939178467,-7.498188972473144,-7.224237442016602,-1.6817283630371094,6.887911796569824,-9.001816749572754,0.075,-2.0860457487202555,-6.2988785654079695,-6.104648654251047,-0.181977866324642,-0.5294080440913072,-0.49437128261849567,-0.007888903201597953,-0.022669064860623353,-0.02118084152842407,0.5487910734690968,0.2414815808989014,20.502034429755795,26.946659088134872,-4.56298828125,15.137929916381836,-0.14500594633865652,-0.4195318490647308,-0.3916301548446256,0.07335390252525924,0.14675623415853556,0.09158074547523903,0.02997523818562971,0.08863079966294994,0.08164162551423718,-13.144157648086548,-38.68420648574829,-35.91288614273071,-0.7250297316932826,-2.097659245323654,-1.9581507742231279,-2.503325939178467,-7.498188972473144,-7.056912422180176,-0.10640242979247067,-0.30554526469239773,-0.2876311583083296,-0.181977866324642,-0.5294080440913072,-0.49437128261849567,-0.005156279054856073,-0.014742839215981952,-0.013793117045364293,0.0020443946426287295,0.005922087302067292,0.005517574108102865,-0.025781395274280368,-0.07371419607990976,-0.06896558522682146,-0.0027336756857578547,-0.007734781688696218,-0.007259844729134085,-0.007888903201597953,-0.022669064860623353,-0.02118084152842407
-133.91578674316406,16.629222869873047,24.477821350097656,-2.465237855911255,-7.232049465179443,-7.242186069488525,-1.0091753005981443,7.736843109130859,-8.62513256072998,0.08333333333333333,-2.0096236270173153,-5.91876336263829,-6.010163565790959,-0.19872472988311962,-0.5787310721132929,-0.544455979000087,-0.009544942617290617,-0.027491823794900793,-0.025717974686758127,0.5985931496043202,0.051852653148471615,20.32038504345688,31.936740875244034,-2.1538352966308594,4.57056999206543,-0.16347040635678628,-0.47416901054890986,-0.44299511898297705,0.10083209408946754,0.26765021210075435,0.07406286579156895,0.02865682472859043,0.084922065334531,0.08063740386755487,-12.956536769866943,-38.16376066207886,-35.852378845214844,-0.8173520317839315,-2.3708450527445493,-2.2149755949148853,-2.465237855911255,-7.232049465179443,-7.056912422180176,-0.1262300001577531,-0.3642260520398595,-0.340646317730458,-0.19872472988311962,-0.5787310721132929,-0.544455979000087,-0.006518532441162626,-0.018694247637222865,-0.0174847430368891,0.0022820433364088674,0.006626463366376566,0.006187741236845027,-0.03259266220581313,-0.09347123818611433,-0.0874237151844455,-0.0037855923537391304,-0.01076999878902838,-0.010098564043554569,-0.009544942617290617,-0.027491823794900793,-0.025717974686758127
-133.94053649902344,16.522851943969727,24.463699340820312,-2.450395107269287,-7.202332496643066,-7.155754089355469,-0.8393914699554443,9.066723823547363,-8.747352600097656,0.09166666666666666,-1.9572292076442346,-5.778563984449211,-5.812857756580214,-0.21503497328015492,-0.626885771983703,-0.5928964603049222,-0.011336900727958574,-0.032715871894764985,-0.030658778522632477,0.5536895363561247,0.08184597787262808,20.23926532860744,3.5660362243652344,10.371837615966797,1.7811298370361328,-0.18123140098126664,-0.5267009545376785,-0.49344514749786994,0.10515879396464456,0.2845531242875488,0.07307579580387132,0.02729306904679317,0.08106164031763505,0.079496339124075,-12.73509931564331,-37.49276256561279,-35.86530256271362,-0.9061570049063332,-2.6335047726883927,-2.4672257374893496,-2.450395107269287,-7.202332496643066,-7.056912422180176,-0.14582528366644354,-0.42156249512051547,-0.39200280506610774,-0.21503497328015492,-0.626885771983703,-0.5928964603049222,-0.008028794116006516,-0.023083422258370186,-0.02159678593270468,0.002508692236516652,0.007299452457559502,0.006848497160500288,-0.04014397058003258,-0.11541711129185094,-0.10798392966352341,-0.005000803050959493,-0.014283019581699342,-0.013365254085772132,-0.011336900727958574,-0.032715871894764985,-0.030658778522632477
-133.9585418701172,16.412513732910156,24.44527244567871,-2.432027816772461,-6.986936092376709,-7.1299967765808105,0.1141754686832428,9.680991172790527,-8.673288345336914,0.1,-1.9019206692320405,-5.455723919971461,-5.678145080613425,-0.23088431219042194,-0.6723501379834651,-0.6402143359767007,-0.013260936662878756,-0.03831878971129386,-0.03599389798910498,0.5598811111655888,-0.055895773744039395,20.069254266193116,25.84756851196289,3.0908775329589844,2.2040748596191406,-0.19824320668606232,-0.5768584831102684,-0.5430874536799886,0.07903773322138943,0.2855301563202584,0.04651916169165014,0.026193783869062917,0.07724095214198491,0.07779383775373112,-12.480462074279785,-36.64225149154663,-35.93838691711426,-0.9912160334303116,-2.884292415551342,-2.715437268399943,-2.432027816772461,-6.986936092376709,-7.1299967765808105,-0.1645941517519732,-0.4769173893795741,-0.44349921049973695,-0.23088431219042194,-0.6723501379834651,-0.6402143359767007,-0.009680820838390367,-0.027890576284289093,-0.026122514713371254,0.0027264799299495193,0.007941248480720692,0.007495252955475142,-0.04840410419195183,-0.13945288142144546,-0.13061257356685627,-0.006372420982225937,-0.018257331159862458,-0.017061080839936606,-0.013260936662878756,-0.03831878971129386,-0.03599389798910498
-133.9862518310547,16.3034610748291,24.42647361755371,-2.396279811859131,-6.819547653198242,-7.047204971313477,-1.040424942970276,9.683040618896484,-8.59385871887207,0.10833333333333334,-1.8300140588816247,-5.185069293928614,-5.488272456533521,-0.2461344293477688,-0.7155590487662036,-0.6859499397811467,-0.015312056907443496,-0.04428178178434556,-0.041710147487281204,0.549320156567755,-0.11781883542963652,19.88947672879287,20.086612701416016,9.935016632080078,4.289760589599609,-0.21455126220522142,-0.6245868149875944,-0.5915775995362705,0.039633848428715986,0.258104144175686,0.07829728859027059,0.02537717571713131,0.07369585322362066,0.075734611141922,-12.2472665309906,-35.739054679870605,-35.79937934875488,-1.0727563110261071,-3.1229340749379717,-2.9578879976813526,-2.396279811859131,-6.819547653198242,-7.047204971313477,-0.181977866324642,-0.5294080440913072,-0.49437128261849567,-0.2461344293477688,-0.7155590487662036,-0.6859499397811467,-0.011468748023433877,-0.03309546640918571,-0.031052328042840173,0.002937544178208991,0.008553822388072407,0.008125033566097296,-0.05734374011716939,-0.16547733204592854,-0.15526164021420086,-0.007888903201597953,-0.022669064860623353,-0.02118084152842407,-0.015312056907443496,-0.04428178178434556,-0.041710147487281204
-134.0247802734375,16.19794464111328,24.416423797607425,-2.3804924488067627,-6.924743175506592,-6.878925800323486,-2.636768341064453,8.595369338989258,-8.915099143981934,0.11666666666666667,-1.7788233517080965,-5.188439089488671,-5.215976465403556,-0.2609579572786696,-0.7587960411786092,-0.7294164103261763,-0.01748670655143241,-0.05060508212750064,-0.04778861757333267,0.4528034463757933,0.0586889112744051,19.846431495434565,-12.623462677001953,20.193500518798828,1.8944835662841797,-0.23034728039602698,-0.6704644144050548,-0.6385866250778066,0.03577392123327631,0.17867389138457035,0.13735389069061896,0.02460177058942295,0.0709817977606725,0.07321911054961182,-12.124433040618896,-35.16560888290405,-35.45406770706177,-1.1517364019801348,-3.3523220720252738,-3.192933125389033,-2.3804924488067627,-6.819547653198242,-6.878925800323486,-0.19872472988311962,-0.5787310721132929,-0.544455979000087,-0.2609579572786696,-0.7587960411786092,-0.7294164103261763,-0.013388308693400772,-0.03868266986256117,-0.03637388325182189,0.003142198007111589,0.009144179719784866,0.008733943465494302,-0.06694154346700386,-0.19341334931280585,-0.18186941625910946,-0.009544942617290617,-0.027491823794900793,-0.025717974686758127,-0.01748670655143241,-0.05060508212750064,-0.04778861757333267
-134.06591796875,16.108749389648438,24.41763687133789,-2.444227933883667,-6.989712238311768,-6.705906867980957,-3.331822872161865,6.376394748687744,-8.466657638549805,0.125,-1.807066082155401,-5.151053288856499,-4.942742876899165,-0.2760168412966313,-0.8017214852524134,-0.770605934300336,-0.019786846895571007,-0.05728609450460408,-0.05421033369250214,0.2912674144580304,0.17921549563083908,19.79411535333088,-7.796287536621094,20.762271881103516,-7.648258209228516,-0.2458057026787293,-0.7150624970328788,-0.6838166161378564,0.03072732530273913,0.13987863870725117,0.18919883307867896,0.02404109741203211,0.06896036931159798,0.07032764680200289,-12.103423118591309,-34.92327165603638,-34.9177885055542,-1.2290285133936465,-3.5753124851643943,-3.419083080689282,-2.3804924488067627,-6.819547653198242,-6.705906867980957,-0.21503497328015492,-0.626885771983703,-0.5928964603049222,-0.2760168412966313,-0.8017214852524134,-0.770605934300336,-0.015436689549056849,-0.044641524004501824,-0.042072355052970696,0.00334230986535248,0.009718239941835948,0.009318727735952012,-0.07718344774528424,-0.22320762002250913,-0.21036177526485347,-0.011336900727958574,-0.032715871894764985,-0.030658778522632477,-0.019786846895571007,-0.05728609450460408,-0.05421033369250214
-134.09811401367188,16.030033111572266,24.43612289428711,-2.509042501449585,-7.112384796142578,-6.81598424911499,-2.8280935287475586,4.005695343017578,-8.881352424621582,0.13333333333333333,-1.8356202301177205,-5.170701661178239,-4.9540301423192075,-0.2913136765476123,-0.8448106657622321,-0.8118895188196626,-0.02221446086680111,-0.06432618338595601,-0.060976079682665996,0.25854291160364024,0.17738066604425204,19.970740362239226,-14.720706939697266,-13.209285736083984,-7.777748107910156,-0.2610614433322208,-0.7586474757885846,-0.7276152278408045,0.050032920253972005,0.10674420881997158,0.17213755442613152,0.023834571753006954,0.06816034537198687,0.06769141996582596,-12.162070512771606,-34.83332395553589,-34.57801866531372,-1.305307216661104,-3.7932373789429232,-3.6380761392040224,-2.3804924488067627,-6.819547653198242,-6.705906867980957,-0.23088431219042194,-0.6723501379834651,-0.6402143359767007,-0.2913136765476123,-0.8448106657622321,-0.8118895188196626,-0.017612201576825352,-0.050963586302740026,-0.0481358152849774,0.0035408259519262315,0.010285900890001795,0.009881903564129641,-0.08806100788412677,-0.25481793151370014,-0.240679076424887,-0.013260936662878756,-0.03831878971129386,-0.03599389798910498,-0.02221446086680111,-0.06432618338595601,-0.060976079682665996
-134.12893676757812,15.962241172790527,24.45729255676269,-2.465423583984375,-6.823614120483398,-6.831431865692139,-2.752685308456421,2.944651365280152,-8.21789264678955,0.14166666666666666,-1.7558863595075689,-4.781230163756727,-4.87051291188071,-0.30594606287684206,-0.8846542504602048,-0.8524771264186686,-0.024764011390774793,-0.07169830213979106,-0.0680800557361549,0.3221466384253409,-0.020808274206409474,19.77013418626459,34.65248107910156,-1.8537139892578125,5.234270095825195,-0.2760737934695048,-0.8011082982839326,-0.770067785929198,0.052152645260337985,0.12277526204058362,0.12431580301812058,0.02371425619269429,0.06708054904534641,0.06570576977051777,-12.19546627998352,-34.67000198364258,-34.27945375442505,-1.380368967347524,-4.005541491419663,-3.8503389296459902,-2.3804924488067627,-6.819547653198242,-6.705906867980957,-0.2461344293477688,-0.7155590487662036,-0.6859499397811467,-0.30594606287684206,-0.8846542504602048,-0.8524771264186686,-0.019912816522404564,-0.057639488788439476,-0.05455304683438737,0.0037383326935876747,0.010844332834332468,0.010428930193983194,-0.09956408261202282,-0.2881974439421974,-0.2727652341719369,-0.015312056907443496,-0.04428178178434556,-0.041710147487281204,-0.024764011390774793,-0.07169830213979106,-0.0680800557361549
-134.17022705078125,15.915850639343262,24.465900421142575,-2.418933153152466,-6.742120265960693,-6.754978656768799,-3.586376905441284,2.130579233169556,-5.297382354736328,0.15,-1.67436519404886,-4.603064390934251,-4.696497911809783,-0.31989910616058254,-0.923013120384657,-0.8916146090170834,-0.027429837275446314,-0.07939007814299653,-0.07551017747796393,0.3255677908226038,-0.013699333133263568,19.65027326222959,9.77926254272461,9.174385070800781,5.578851699829102,-0.2908267288320675,-0.8425991126076233,-0.8112007197763853,0.0483487269843305,0.14388764184209776,0.06767671597095762,0.023374723455519362,0.06506510860870107,0.06424021258590698,-12.218119621276855,-34.59257459640503,-33.98722743988037,-1.4541336441603376,-4.212995563038117,-4.056003598881927,-2.3804924488067627,-6.742120265960693,-6.705906867980957,-0.2609579572786696,-0.7587960411786092,-0.7294164103261763,-0.31989910616058254,-0.923013120384657,-0.8916146090170834,-0.022336372596005127,-0.06466114806016968,-0.06131305283252393,0.003932906592755502,0.0113857314730884,0.01096384051851496,-0.11168186298002564,-0.32330574030084835,-0.30656526416261964,-0.01748670655143241,-0.05060508212750064,-0.04778861757333267,-0.027429837275446314,-0.07939007814299653,-0.07551017747796393
-134.21998596191406,15.893325805664062,24.467992782592773,-2.52498197555542,-6.821334362030029,-6.476268291473389,-4.393174171447754,0.7437477111816406,-2.780578851699829,0.15833333333333333,-1.7451966766217075,-4.586499713135867,-4.3241012186851515,-0.3344424117990968,-0.9612339513274559,-0.9276487858394598,-0.03021685737377212,-0.08740036107072534,-0.0832405840266261,0.08589951217120868,0.16650304954872308,19.547201109504453,-9.505691528320312,33.44524383544922,-12.725858688354492,-0.305523619736153,-0.8830866946373928,-0.850847194879042,0.044182865046967806,0.15006765715052653,0.14353543805004584,0.022998380713793808,0.06282698886049302,0.06228860957186451,-12.362609148025513,-34.48916578292847,-33.58456993103027,-1.527618098680765,-4.4154334731869636,-4.25423597439521,-2.418933153152466,-6.742120265960693,-6.476268291473389,-0.2760168412966313,-0.8017214852524134,-0.770605934300336,-0.3344424117990968,-0.9612339513274559,-0.9276487858394598,-0.024882402760473068,-0.0720202038488146,-0.06840344612318261,0.004124392339066184,0.011908608577863373,0.011482171895692256,-0.12441201380236534,-0.360101019244073,-0.34201723061591305,-0.019786846895571007,-0.05728609450460408,-0.05421033369250214,-0.03021685737377212,-0.08740036107072534,-0.0832405840266261
-134.26731872558594,15.897123336791992,24.473527908325195,-2.6112656593322754,-6.949708461761475,-6.485848426818848,-4.212568759918213,-1.8103630542755127,-0.7303130626678467,0.16666666666666666,-1.7949588360663022,-4.618212763622364,-4.243114550774331,-0.3494004020996493,-0.9997190576909756,-0.9630080737625791,-0.033128527391269195,-0.09573135321815013,-0.09126565130798092,-0.0019952169343357413,0.22596269689202447,19.665573181782896,-15.404891967773438,-1.1496162414550781,-10.354042053222656,-0.3202003318967566,-0.9226862091251051,-0.8893276227714907,0.07189834431802415,0.144922762265964,0.17747864694297477,0.022875722498398594,0.06109649169959482,0.059701695386987434,-12.529646873474121,-34.449162006378174,-33.364511489868164,-1.601001659483783,-4.613431045625526,-4.446638113857453,-2.418933153152466,-6.742120265960693,-6.476268291473389,-0.2913136765476123,-0.8448106657622321,-0.8118895188196626,-0.3494004020996493,-0.9997190576909756,-0.9630080737625791,-0.027550738859612706,-0.07970925559152381,-0.07581450964627837,0.004314980962606252,0.012417496484603226,0.011978916462831469,-0.13775369429806353,-0.39854627795761904,-0.37907254823139186,-0.02221446086680111,-0.06432618338595601,-0.060976079682665996,-0.033128527391269195,-0.09573135321815013,-0.09126565130798092
-134.29945373535156,15.921628952026367,24.48455810546875,-2.6742594242095947,-7.046655178070068,-6.481690406799316,-2.569338321685791,-3.932348728179932,0.5456216931343079,0.175,-1.8205021120283105,-4.617476635118059,-4.149169214968074,-0.3645712530332185,-1.0381980296502928,-0.9975844838873131,-0.036166621166546016,-0.10438300346523591,-0.0995788553403752,-0.06826843680159171,0.2793270448665837,19.746631170509076,-11.63360595703125,0.49896240234375,-7.55925178527832,-0.33485184719387784,-0.9613636819027173,-0.9264666157850208,0.10433536715909078,0.12063391564284667,0.17301282356001962,0.02320668008367389,0.06068313422331723,0.05719163783505334,-12.69486379623413,-34.383432388305664,-33.03021764755249,-1.674259235969389,-4.806818409513586,-4.632333078925104,-2.418933153152466,-6.742120265960693,-6.476268291473389,-0.30594606287684206,-0.8846542504602048,-0.8524771264186686,-0.3645712530332185,-1.0381980296502928,-0.9975844838873131,-0.030341170919561688,-0.08772061960737979,-0.08353506477782022,0.004508360359793322,0.012923061096945755,0.012454999230044153,-0.15170585459780844,-0.43860309803689895,-0.41767532388910106,-0.024764011390774793,-0.07169830213979106,-0.0680800557361549,-0.036166621166546016,-0.10438300346523591,-0.0995788553403752
-134.31692504882812,15.963805198669434,24.494888305664062,-2.629081964492798,-6.704795837402344,-6.4774603843688965,-0.788226842880249,-5.423916339874268,2.176941156387329,0.18333333333333332,-1.738063092687193,-4.180890933010362,-4.056043739304631,-0.3790551121389451,-1.0730387874253793,-1.0313848483815184,-0.03932541376770389,-0.1133249933604474,-0.10817372907688785,0.012443284786131015,0.0601908376831785,19.496076318926065,41.02312088012695,0.5076026916503906,5.421295166015625,-0.34947365704629846,-0.9990405892957522,-0.9622481601775907,0.10111484800343998,0.14327973220819765,0.12289050988032581,0.02347124650526174,0.059621759208380004,0.05526149236112681,-12.858522176742554,-34.26461410522461,-32.67624616622925,-1.7473682852314922,-4.995202946478761,-4.811240800887954,-2.418933153152466,-6.704795837402344,-6.476268291473389,-0.31989910616058254,-0.923013120384657,-0.8916146090170834,-0.3790551121389451,-1.0730387874253793,-1.0313848483815184,-0.03325345139494751,-0.09604595785151106,-0.0915537994459668,0.0047038887062544246,0.013419529111710427,0.012915242630852076,-0.16626725697473754,-0.4802297892575553,-0.457768997229834,-0.027429837275446314,-0.07939007814299653,-0.07551017747796393,-0.03932541376770389,-0.1133249933604474,-0.10817372907688785
-134.34634399414062,16.021469116210938,24.50278091430664,-2.673232078552246,-6.712101936340332,-6.604827404022217,-2.144296169281006,-6.458451271057129,3.6416404247283936,0.19166666666666665,-1.7452989668586625,-4.097161020627337,-4.094292489053883,-0.39359927019610064,-1.1071817959306072,-1.0655039524569674,-0.04260540768600473,-0.1225515083265358,-0.11705292868069592,0.04002860828007524,-0.01645629269060145,19.59878716121141,-0.8767318725585938,-15.284042358398438,-5.298013687133789,-0.364213689853402,-1.0358743244049422,-0.9970260288655677,0.06109840203683709,0.1495739131497884,0.05581068943573883,0.023396957548070137,0.05777053967497892,0.05440700664717375,-13.112821102142334,-34.23459577560425,-32.526094913482666,-1.8210684492670102,-5.179371622024711,-4.985130144327838,-2.52498197555542,-6.704795837402344,-6.476268291473389,-0.3344424117990968,-0.9612339513274559,-0.9276487858394598,-0.39359927019610064,-1.1071817959306072,-1.0655039524569674,-0.036288565477059186,-0.10467824388821892,-0.0998623496865132,0.0048987573282195645,0.013900351725244614,0.01336844904274547,-0.18144282738529594,-0.5233912194410946,-0.499311748432566,-0.03021685737377212,-0.08740036107072534,-0.0832405840266261,-0.04260540768600473,-0.1225515083265358,-0.11705292868069592
-134.3760986328125,16.091157913208008,24.503122329711918,-2.66756534576416,-6.945912837982178,-6.621797561645508,-1.9345917701721191,-6.910771369934082,5.339889049530029,0.2,-1.7027300674067227,-4.238741118847929,-4.0217470161715285,-0.40778868742449,-1.1425046385876731,-1.0990185109250634,-0.04600364674787548,-0.13207238031476642,-0.1262114162717381,0.036146317876329506,0.15352202807093715,19.769163489208463,-28.057308197021484,-2.036418914794922,0.6800079345703125,-0.3788829449784807,-1.0721284618569855,-1.0312999738826885,0.029020950194725264,0.1545401487111027,0.07241546981354961,0.023055295903192774,0.05607309340262189,0.0537499709320672,-13.255404472351074,-34.3591742515564,-32.671624183654785,-1.8944147248924035,-5.360642309284928,-5.156499869413442,-2.6112656593322754,-6.704795837402344,-6.4774603843688965,-0.3494004020996493,-0.9997190576909756,-0.9630080737625791,-0.40778868742449,-1.1425046385876731,-1.0990185109250634,-0.039445923351879866,-0.11361264773702713,-0.1084565161355356,0.00509077387294217,0.01436727816581226,0.013816235474314539,-0.19722961675939932,-0.5680632386851356,-0.542282580677678,-0.033128527391269195,-0.09573135321815013,-0.09126565130798092,-0.04600364674787548,-0.13207238031476642,-0.1262114162717381
-134.39926147460938,16.1701717376709,24.50093650817871,-2.680421829223633,-7.034752368927002,-6.550885677337647,-1.056100606918335,-7.420085430145264,6.284337520599365,0.20833333333333334,-1.678961360553338,-4.2334798088821595,-3.86260065599384,-0.4217800320957678,-1.1777836369950245,-1.131206849725012,-0.049518480348673545,-0.14188724395639163,-0.13563814001944652,-0.007483987962693776,0.26188338582662624,19.785864188851125,-10.660743713378906,8.509426116943253,-1.5427780151367188,-0.3933588709777044,-1.1077413777177954,-1.0649397290751748,0.020542544493838705,0.16923501081115835,0.0671832036410381,0.022634952273011794,0.05512545364027459,0.0529520350701902,-13.324560642242432,-34.444218158721924,-32.736661434173584,-1.966794354888522,-5.538706888588977,-5.324698645375874,-2.629081964492798,-6.704795837402344,-6.4774603843688965,-0.3645712530332185,-1.0381980296502928,-0.9975844838873131,-0.4217800320957678,-1.1777836369950245,-1.131206849725012,-0.04272391394336073,-0.12284382588467543,-0.11733101387782871,0.005279316140445043,0.014826611002724824,0.014257320429205305,-0.21361956971680365,-0.6142191294233772,-0.5866550693891436,-0.036166621166546016,-0.10438300346523591,-0.0995788553403752,-0.049518480348673545,-0.14188724395639163,-0.13563814001944652
-134.41259765625,16.250789642333984,24.498144149780277,-2.711002349853516,-7.37174654006958,-6.630546569824219,0.1441825330257415,-7.575551509857178,6.524534702301025,0.21666666666666667,-1.6728865372329302,-4.473650960143385,-3.854770946224283,-0.43572075323937554,-1.215064061662886,-1.1633299409435478,-0.05314948662566834,-0.15201277780358236,-0.1453325561939761,-0.021056858733341434,0.45478512565682244,20.078839063142848,-40.439300537109375,-9.559307098388565,-3.669662475585991,-0.40758877101893587,-1.143114584120314,-1.0980888204864219,0.029389252250054978,0.27464331938120234,0.06371510894338271,0.022375858103785066,0.05608213870954909,0.052118292140401354,-13.361303567886353,-34.769309520721436,-32.885517597198486,-2.0379438550946793,-5.71557292060157,-5.490444102432109,-2.629081964492798,-6.704795837402344,-6.4774603843688965,-0.3790551121389451,-1.0730387874253793,-1.0313848483815184,-0.43572075323937554,-1.215064061662886,-1.1633299409435478,-0.0461204870351852,-0.13236978075234473,-0.1264817540485489,0.005465703271211677,0.015293955392944801,0.014691423980234914,-0.230602435175926,-0.6618489037617237,-0.6324087702427444,-0.03932541376770389,-0.1133249933604474,-0.10817372907688785,-0.05314948662566834,-0.15201277780358236,-0.1453325561939761
-134.39056396484375,16.330650329589844,24.49808883666992,-2.7188034057617188,-7.402286529541016,-6.590101718902588,4.290051937103272,-7.670350551605225,6.181253910064697,0.225,-1.6440459961633476,-4.405163178221876,-3.72731844394918,-0.4494211365407368,-1.251773754814735,-1.1943909279764577,-0.05689466276350781,-0.16244422576037182,-0.15528581392711324,-0.03572197342124575,0.49915425230036076,20.074733190059746,-3.6647987365722656,4.853382110595703,-0.9361267089843217,-0.4216619758992942,-1.1788615775981852,-1.1306900364054098,0.02316647906929,0.2930306713719478,0.03138887224838411,0.022069309807796828,0.05720092986347155,0.0509307007560205,-13.451025009155273,-35.46680021286011,-32.99815893173218,-2.108309879496471,-5.8943078879909265,-5.653450182027049,-2.66756534576416,-6.712101936340332,-6.550885677337647,-0.39359927019610064,-1.1071817959306072,-1.0655039524569674,-0.4494211365407368,-1.251773754814735,-1.1943909279764577,-0.04963433683434598,-0.1421936272323296,-0.13590417101859398,0.005649552833073641,0.015770611938604785,0.01511565524221554,-0.2481716841717299,-0.710968136161648,-0.6795208550929699,-0.04260540768600473,-0.1225515083265358,-0.11705292868069592,-0.05689466276350781,-0.16244422576037182,-0.15528581392711324
-134.351318359375,16.40793800354004,24.50790023803711,-2.6549367904663086,-7.1074628829956055,-6.4954681396484375,6.029989242553711,-8.329032897949219,5.2300310134887695,0.23333333333333334,-1.5443491896661699,-4.014458463677542,-3.547628844413661,-0.4622907131212882,-1.2852275753453812,-1.223954501679905,-0.06074708537285188,-0.17315445555491665,-0.16548543477444577,0.021666066482400055,0.36576170445264217,19.791060730445373,35.37883758544922,11.356029510498047,7.663993835449219,-0.43540026448433167,-1.21447073348114,-1.1623801462499972,0.027547985883191198,0.2043569110474284,0.05561525490730751,0.021608411048773334,0.056840698386686886,0.04950622372639433,-13.432729721069336,-35.86216115951538,-32.8887996673584,-2.1770013224216584,-6.0723536674057,-5.8119007312499855,-2.6549367904663086,-6.945912837982178,-6.4954681396484375,-0.40778868742449,-1.1425046385876731,-1.0990185109250634,-0.4622907131212882,-1.2852275753453812,-1.223954501679905,-0.053262672371715405,-0.15231421667800576,-0.14559067223734395,0.00582951606275632,0.016244054338002856,0.015527978232958713,-0.266313361858577,-0.7615710833900289,-0.7279533611867197,-0.04600364674787548,-0.13207238031476642,-0.1262114162717381,-0.06074708537285188,-0.17315445555491665,-0.16548543477444577
-134.30267333984375,16.48042106628418,24.519893646240234,-2.661863088607788,-7.269102573394775,-6.681267261505127,7.074435234069824,-8.034110069274902,4.591083526611328,0.24166666666666667,-1.516258211288585,-4.082233862710709,-3.648400778040738,-0.47492619821535975,-1.3192461908679705,-1.254357841496911,-0.0647048036913132,-0.18414817381214973,-0.17593841678692002,0.10217712167431028,0.37148430417757156,20.028427412877356,-19.39676284790039,-22.295894622802734,-0.8311557769775391,-0.4488277666425057,-1.2498190439371997,-1.1934480123643667,0.028627099053641702,0.161392988120615,0.07148313006365177,0.021012525376250042,0.05584514833058361,0.04853504614702011,-13.427027463912964,-36.18535089492798,-32.94826936721802,-2.2441388332125283,-6.249095219685998,-5.967240061821833,-2.6549367904663086,-7.034752368927002,-6.4954681396484375,-0.4217800320957678,-1.1777836369950245,-1.131206849725012,-0.47492619821535975,-1.3192461908679705,-1.254357841496911,-0.057002903760402956,-0.16272937537748244,-0.15553607234038033,0.0060044835753475505,0.01670904275482207,0.01593225936136673,-0.2850145188020148,-0.8136468768874122,-0.7776803617019017,-0.049518480348673545,-0.14188724395639163,-0.13563814001944652,-0.0647048036913132,-0.18414817381214973,-0.17593841678692002
-134.23110961914062,16.539743423461914,24.52611541748047,-2.576539993286133,-7.154751777648926,-6.773862838745117,10.02566909790039,-6.515621662139893,3.987342834472656,0.25,-1.3969058600369921,-3.8744985786913224,-3.6544205578233786,-0.4865670803823347,-1.3515336790237316,-1.2848113461454391,-0.068759529361166,-0.19541095447068083,-0.18664517800479868,0.2475455400364038,0.26368847669929246,19.98759493631818,13.722095489501953,-11.111469268798828,10.238771438598633,-0.46178517629981897,-1.284569052342941,-1.224168911648452,0.05689159892177344,0.12957105943361885,0.10359242069411452,0.020120315747121535,0.053836962406709404,0.047898410690627016,-13.323145627975464,-36.3053503036499,-33.17124652862549,-2.308925881499095,-6.422845261714705,-6.12084455824226,-2.576539993286133,-7.1074628829956055,-6.4954681396484375,-0.43572075323937554,-1.215064061662886,-1.1633299409435478,-0.4865670803823347,-1.3515336790237316,-1.2848113461454391,-0.060851113562901446,-0.17343411748034027,-0.16573747993745075,0.006171980037166362,0.01715737517466876,0.016331355678686644,-0.30425556781450724,-0.8671705874017014,-0.8286873996872537,-0.05314948662566834,-0.15201277780358236,-0.1453325561939761,-0.068759529361166,-0.19541095447068083,-0.18664517800479868
-134.1557159423828,16.585168838500977,24.521215438842773,-2.4796714782714844,-6.827371597290039,-6.704187393188477,10.855850219726562,-4.36831521987915,3.6314327716827393,0.2583333333333333,-1.2678643363732998,-3.458337687764759,-3.4987913647300166,-0.4971326165187789,-1.3803531597551046,-1.3139679408515226,-0.07290230116548915,-0.20691389746864003,-0.19759491084522804,0.34510118574110543,0.09819001439555335,19.688216745106185,39.285621643066406,8.361053466796875,11.624221801757812,-0.4740675489556997,-1.3176268719613846,-1.254296511630047,0.09260490950468761,0.21431921065137455,0.10807241802698322,0.018941438787252927,0.05116939612309399,0.047437208162155166,-13.091814756393433,-35.76097536087036,-33.244887351989746,-2.3703377447784986,-6.588134359806923,-6.271482558150235,-2.4796714782714844,-6.827371597290039,-6.4954681396484375,-0.4494211365407368,-1.251773754814735,-1.1943909279764577,-0.4971326165187789,-1.3803531597551046,-1.3139679408515226,-0.06480167647086561,-0.1844143414133518,-0.17618995086770114,0.006329586855005985,0.01758335418769606,0.01672660277479575,-0.32400838235432805,-0.922071707066759,-0.8809497543385058,-0.05689466276350781,-0.16244422576037182,-0.15528581392711324,-0.07290230116548915,-0.20691389746864003,-0.19759491084522804
-134.08663940429688,16.61357879638672,24.504375457763672,-2.439966917037964,-7.003054141998291,-6.789391994476318,10.518576622009276,-2.01865816116333,3.1850409507751465,0.26666666666666666,-1.1974433793378174,-3.5473600835819328,-3.4987237070060813,-0.507111311346594,-1.4099144937849541,-1.34312397174324,-0.0771282287600441,-0.21866318491684797,-0.20878761060975504,0.4119133363096442,0.18292171079161898,19.854347493876823,-21.081905364990234,-10.224552154541016,4.764547348022461,-0.4856055839168711,-1.3492550197554283,-1.2840431203834035,0.10061011343894058,0.16699616490362562,0.11728720286454598,0.017705406995578814,0.04912204657259029,0.047112869601988634,-12.812978267669678,-35.36174297332764,-33.44417762756348,-2.4280279195843555,-6.746275098777142,-6.420215601917017,-2.439966917037964,-6.827371597290039,-6.4954681396484375,-0.4622907131212882,-1.2852275753453812,-1.223954501679905,-0.507111311346594,-1.4099144937849541,-1.34312397174324,-0.06884838967017286,-0.19565813324464704,-0.1868903102042295,0.006476848500670062,0.017992223346171114,0.0171190901577518,-0.3442419483508643,-0.9782906662232352,-0.9344515510211475,-0.06074708537285188,-0.17315445555491665,-0.16548543477444577,-0.0771282287600441,-0.21866318491684797,-0.20878761060975504
-134.00772094726562,16.62522315979004,24.487293243408203,-2.40766716003418,-7.063526630401611,-6.769045352935791,11.701020240783691,-0.5291773676872253,1.7065740823745728,0.275,-1.135327667829587,-3.5200054325410237,-3.3933667115956654,-0.516572375245174,-1.4392478723894626,-1.3714020276732037,-0.08143299855375388,-0.23065691718676015,-0.22021596084036507,0.43172018228136894,0.23927922767293083,19.873131110018225,-7.2566986083984375,2.4415969848632812,3.8759708404540483,-0.49646191634164827,-1.3800590791642446,-1.3135326255820634,0.10456705767845596,0.16583848416472954,0.047694140091859696,0.016431562189015567,0.04718752839771034,0.04623654379762968,-12.56570863723755,-35.31780672073364,-33.71775484085083,-2.4823095817082415,-6.900295395821224,-6.567663127910317,-2.40766716003418,-6.827371597290039,-6.681267261505127,-0.47492619821535975,-1.3192461908679705,-1.254357841496911,-0.516572375245174,-1.4392478723894626,-1.3714020276732037,-0.07298557230635326,-0.20715862557101575,-0.19783641541741337,0.00661358667085947,0.018385273678090407,0.017504265142985042,-0.3649278615317663,-1.0357931278550787,-0.9891820770870668,-0.0647048036913132,-0.18414817381214973,-0.17593841678692002,-0.08143299855375388,-0.23065691718676015,-0.22021596084036507
-133.9258270263672,16.61817741394043,24.472732543945312,-2.368381977081299,-6.869278430938721,-6.806711673736572,11.977192878723145,0.7563628554344177,-0.0583620443940162,0.2833333333333333,-1.0671166462749997,-3.2398961529174803,-3.3466857252487543,-0.5254650139641323,-1.4662470069971083,-1.39929107538361,-0.08581187367012165,-0.24287564224506938,-0.23187671980189514,0.5081681825543465,0.08071018450192259,19.75297712583421,23.309783935546875,-4.51995849609375,4.714221954345756,-0.5065696794914027,-1.409459242390072,-1.342519272359403,0.07960557094556134,0.1355879749331309,0.03892839097657012,0.01538297013675059,0.04559318720434066,0.04528520761040311,-12.27222752571106,-34.91798257827759,-33.843199253082275,-2.532848397457014,-7.047296211950361,-6.712596361797015,-2.368381977081299,-6.827371597290039,-6.704187393188477,-0.4865670803823347,-1.3515336790237316,-1.2848113461454391,-0.5254650139641323,-1.4662470069971083,-1.39929107538361,-0.07720698630211495,-0.21890411925759964,-0.20902407602040837,0.006741648756279714,0.018765090148416205,0.017881543714901454,-0.3860349315105748,-1.0945205962879982,-1.045120380102042,-0.068759529361166,-0.19541095447068083,-0.18664517800479868,-0.08581187367012165,-0.24287564224506938,-0.23187671980189514
-133.85122680664062,16.59140968322754,24.4548454284668,-2.2736504077911377,-6.749157905578613,-6.881043910980225,11.208239555358888,2.734947204589844,-1.552402138710022,0.2916666666666667,-0.9448693186117532,-3.0373898739291665,-3.3365316637370865,-0.5333389249525635,-1.4915585892798513,-1.4270955059147525,-0.090256364711393,-0.2553052971557348,-0.24376918235118475,0.6392813868603298,-0.023969908532000934,19.692313932881305,14.41446304321289,-8.919868469238281,11.367788314819336,-0.5159240484054485,-1.437464224441296,-1.3709761043132658,0.0787076405012048,0.12874631660792296,0.0639756110331804,0.014365849465434441,0.044097878769204235,0.04465696536798617,-11.969337940216064,-34.512388706207275,-33.95038032531738,-2.5796202420272425,-7.18732112220648,-6.854880521566329,-2.2736504077911377,-6.749157905578613,-6.704187393188477,-0.4971326165187789,-1.3803531597551046,-1.3139679408515226,-0.5333389249525635,-1.4915585892798513,-1.4270955059147525,-0.08150635337216036,-0.23088298779461044,-0.2204488768896856,0.006861182002697915,0.019132204111420154,0.01825359817640368,-0.4075317668608018,-1.1544149389730523,-1.102244384448428,-0.07290230116548915,-0.20691389746864003,-0.19759491084522804,-0.090256364711393,-0.2553052971557348,-0.24376918235118475
-133.79052734375,16.543785095214844,24.43550491333008,-2.2037127017974854,-6.690831184387207,-6.834153175354004,9.597590446472168,4.526791572570801,-3.1944539546966557,0.3,-0.8490733760178535,-2.8989789750586015,-3.205732444475368,-0.540414536419379,-1.5157167474053397,-1.4538099429520472,-0.0947598191815545,-0.2679362700507793,-0.2558842652091185,0.6803410409534022,-0.02389150429332667,19.601107521534537,6.99920654296875,5.626888275146484,8.392524719238281,-0.5245804323855685,-1.4645369419713432,-1.3989445047333706,0.09791002836186215,0.1594734550468374,0.0434718932662463,0.013205223362431434,0.04176007398255252,0.043810202109692074,-11.693379163742065,-34.37584829330444,-34.08034610748291,-2.6229021619278425,-7.322684709856716,-6.994722523666853,-2.2037127017974854,-6.690831184387207,-6.769045352935791,-0.507111311346594,-1.4099144937849541,-1.34312397174324,-0.540414536419379,-1.5157167474053397,-1.4538099429520472,-0.08587785697537342,-0.24308746231103834,-0.2321067477624637,0.006970970103179957,0.01947978041736015,0.018618596889255427,-0.4293892848768671,-1.2154373115551917,-1.1605337388123185,-0.0771282287600441,-0.21866318491684797,-0.20878761060975504,-0.0947598191815545,-0.2679362700507793,-0.2558842652091185
-133.74664306640625,16.47974395751953,24.416622161865234,-2.179841995239258,-6.605931758880615,-6.804403781890869,7.551294803619385,5.906527996063232,-4.711406230926514,0.30833333333333335,-0.8003908727028319,-2.7359825673077367,-3.093527839318103,-0.5470844603585693,-1.5385166021329042,-1.4795893416130315,-0.09931885635120924,-0.28075724173522015,-0.2682141763892271,0.688403862916629,-0.06936223045886511,19.51624774857484,10.187931060791016,3.569927215576172,2.8644847869873047,-0.5325750621879636,-1.4902573636409333,-1.4262375787073291,0.09972562836159256,0.17770797648340697,0.041649007503287414,0.012033310568535951,0.03923420998806663,0.04283816526437976,-11.43325424194336,-33.97872591018677,-34.09535789489746,-2.662875310939818,-7.451286818204666,-7.131187893536645,-2.179841995239258,-6.605931758880615,-6.769045352935791,-0.516572375245174,-1.4392478723894626,-1.3714020276732037,-0.5470844603585693,-1.5385166021329042,-1.4795893416130315,-0.09031598249360645,-0.2555062736747128,-0.24399206091835812,0.007071021433542878,0.019806438079825087,0.01897544137115098,-0.45157991246803225,-1.2775313683735638,-1.2199603045917906,-0.08143299855375388,-0.23065691718676015,-0.22021596084036507,-0.09931885635120924,-0.28075724173522015,-0.2682141763892271
-133.72525024414062,16.39964485168457,24.39510154724121,-2.1669209003448486,-6.597268104553223,-6.837498664855957,4.951014518737793,7.400273323059082,-5.8442206382751465,0.31666666666666665,-0.7632152586294154,-2.650775506940408,-3.044935979321685,-0.5534445875138144,-1.5606063980240743,-1.5049638081073788,-0.10393089458049103,-0.29376229505208745,-0.2807555414567886,0.7053596024983583,-0.09864109200918238,19.529239599358803,1.0396385192871094,-3.971385955810547,1.5505313873291016,-0.5399495046416917,-1.5145290687678554,-1.452949934794164,0.08348557401112956,0.1123914401062509,0.030977097681960105,0.011031107643568861,0.037278455660126546,0.041723989839949883,-11.192507982254028,-33.51246738433838,-34.16381120681763,-2.6997475232084582,-7.572645343839278,-7.26474967397082,-2.1669209003448486,-6.597268104553223,-6.804403781890869,-0.5254650139641323,-1.4662470069971083,-1.39929107538361,-0.5534445875138144,-1.5606063980240743,-1.5049638081073788,-0.09481556169895389,-0.26812734924777826,-0.25609997704164283,0.007162833566166977,0.020116876424382042,0.019322990859713413,-0.47407780849476944,-1.3406367462388913,-1.2804998852082141,-0.08581187367012165,-0.24287564224506938,-0.23187671980189514,-0.10393089458049103,-0.29376229505208745,-0.2807555414567886
-133.73098754882812,16.301984786987305,24.368200302124023,-2.2111027240753174,-6.647499084472656,-6.806642055511475,1.864383339881897,9.357367515563965,-6.990087985992432,0.325,-0.7831216880766867,-2.6248656303314677,-2.9331661658056705,-0.5599706015811201,-1.5824802782768366,-1.5294068594890928,-0.1085973162603337,-0.3069496307043944,-0.2935005986191977,0.631512029920482,-0.06876027712915465,19.557053913192973,-6.027717590332031,3.7027931213378906,-5.30181884765625,-0.5468506221650893,-1.5377757230238012,-1.4789730916152606,0.041272861911229704,0.0630422275607029,0.030991746438005743,0.010484012596412785,0.035857034665592306,0.04044728049740937,-11.035228729248047,-33.290688037872314,-34.16374158859253,-2.7342531108254464,-7.688878615119006,-7.394865458076303,-2.1669209003448486,-6.597268104553223,-6.804403781890869,-0.5333389249525635,-1.4915585892798513,-1.4270955059147525,-0.5599706015811201,-1.5824802782768366,-1.5294068594890928,-0.09937265021699629,-0.28094214693964326,-0.2684247528051033,0.007250169319568344,0.020415560853331724,0.019659932083077113,-0.49686325108498147,-1.4047107346982162,-1.3421237640255166,-0.090256364711393,-0.2553052971557348,-0.24376918235118475,-0.1085973162603337,-0.3069496307043944,-0.2935005986191977
-133.74835205078125,16.189208984375,24.33641242980957,-2.263206243515014,-6.59514856338501,-6.713089942932129,0.6302382349967957,10.96806812286377,-7.858844757080078,0.3333333333333333,-0.810381207324316,-2.497144017904767,-2.7605384758086187,-0.5667237783088227,-1.6032898117593763,-1.552411346787498,-0.11332001441290722,-0.3203103791357225,-0.30643735984242687,0.5282660811469114,-0.07818592412069719,19.474289190855178,6.282062530517578,11.226253509521484,-6.252422332763619,-0.5535275928363411,-1.5601219675197062,-1.5040362597898096,0.037114016602791386,0.04134138170712555,0.05046263132384734,0.010357663434788448,0.034648978686358294,0.039067286277795495,-11.024784564971924,-33.13667869567871,-33.995787620544434,-2.7676379641817057,-7.800609837598531,-7.520181298949048,-2.1669209003448486,-6.59514856338501,-6.713089942932129,-0.540414536419379,-1.5157167474053397,-1.4538099429520472,-0.5667237783088227,-1.6032898117593763,-1.552411346787498,-0.10398538015729915,-0.29394316333564074,-0.28095838830335174,0.007336479737117024,0.020704214562385064,0.019985324386883736,-0.5199269007864957,-1.4697158166782038,-1.4047919415167587,-0.0947598191815545,-0.2679362700507793,-0.2558842652091185,-0.11332001441290722,-0.3203103791357225,-0.30643735984242687
-133.78121948242188,16.067262649536133,24.30558967590332,-2.3079910278320312,-6.466455936431885,-6.551600933074951,-1.268378496170044,11.706398010253906,-8.76717758178711,0.3416666666666667,-0.8297537667115629,-2.2953550490972745,-2.522900197100288,-0.5736383930314191,-1.6224177705018537,-1.573435515096667,-0.11810033435483572,-0.33383052722323797,-0.3195493224682324,0.4051175010886961,-0.09791942601572254,19.29112025791031,15.443115234375,19.378681182861328,-5.3741741180420455,-0.5601723641587492,-1.5814621721390092,-1.5279613742187337,0.05905397492195282,0.06822431446552772,0.11648854544052335,0.01049823644201554,0.0332946269157935,0.0372039301026063,-11.12906289100647,-32.91230344772339,-33.71323537826538,-2.8008618207937457,-7.907310860695046,-7.639806871093668,-2.1669209003448486,-6.466455936431885,-6.551600933074951,-0.5470844603585693,-1.5385166021329042,-1.4795893416130315,-0.5736383930314191,-1.6224177705018537,-1.573435515096667,-0.10865348319195538,-0.3071220147701325,-0.29369139975517455,0.007423960646162094,0.020981483959020348,0.020295032711281906,-0.5432674159597769,-1.5356100738506626,-1.4684569987758729,-0.09931885635120924,-0.28075724173522015,-0.2682141763892271,-0.11810033435483572,-0.33383052722323797,-0.3195493224682324
-133.8294219970703,15.948162078857422,24.27776527404785,-2.365288496017456,-6.584726810455322,-6.433037757873535,-3.2135751247406006,11.175414085388184,-8.705421447753906,0.35,-0.8610324477233049,-2.341347712979813,-2.3313024321788074,-0.5808136634291132,-1.641929001443352,-1.5928630353648237,-0.12294044821674499,-0.34751326890193257,-0.3328231810962726,0.265715979529266,0.031201175997091605,19.310821708504346,-14.1925048828125,14.227581024169922,-6.875696182250977,-0.5669182047728579,-1.6021446520010987,-1.550616112969092,0.07812113036647995,0.0670495014482402,0.17229322317424342,0.010817694478272993,0.03204379550938906,0.034794812121199475,-11.314509391784668,-32.891098499298096,-33.34186935424805,-2.8345910238642897,-8.010723260005493,-7.75308056484546,-2.1669209003448486,-6.466455936431885,-6.433037757873535,-0.5534445875138144,-1.5606063980240743,-1.5049638081073788,-0.5808136634291132,-1.641929001443352,-1.5928630353648237,-0.11337780156506252,-0.32047322020347496,-0.30661320069658365,0.007514102701158809,0.02124834933019011,0.020584558008675646,-0.5668890078253126,-1.6023661010173749,-1.5330660034829182,-0.10393089458049103,-0.29376229505208745,-0.2807555414567886,-0.12294044821674499,-0.34751326890193257,-0.3328231810962726
-133.8732147216797,15.835127830505373,24.26007080078125,-2.4395205974578857,-6.679279327392578,-6.3557634353637695,-3.023978471755981,9.884151458740234,-9.023781776428224,0.35833333333333334,-0.9083965948477837,-2.3625518526514186,-2.1833734408155125,-0.5883836350528447,-1.6616169335487805,-1.6110578140382863,-0.1278436451755187,-0.3613600766815057,-0.346248662879925,0.1344722061601301,0.11266298456321801,19.345669153381003,-11.346302032470703,9.272918701171875,-8.907852172851562,-0.573906014280664,-1.6223467591060399,-1.5718349141552737,0.08878534347293339,0.08137502847808734,0.18804796008416128,0.011215714219075575,0.031137274263411285,0.032251335136145205,-11.587109088897705,-32.97310972213745,-32.86013412475586,-2.86953007140332,-8.1117337955302,-7.859174570776368,-2.2111027240753174,-6.466455936431885,-6.3557634353637695,-0.5599706015811201,-1.5824802782768366,-1.5294068594890928,-0.5883836350528447,-1.6616169335487805,-1.6110578140382863,-0.11816035168406806,-0.3339927765293586,-0.3197118249812109,0.007607555606061628,0.02150778284133164,0.020852923320404695,-0.5908017584203403,-1.669963882646793,-1.5985591249060547,-0.1085973162603337,-0.3069496307043944,-0.2935005986191977,-0.1278436451755187,-0.3613600766815057,-0.346248662879925
-133.90713500976562,15.727948188781738,24.2547607421875,-2.4910120964050293,-6.728700637817383,-6.341411590576172,-2.246356248855591,8.32444953918457,-9.454331398010254,0.36666666666666664,-0.9322278418376801,-2.3381464568452417,-2.0998495261386507,-0.5961522004014921,-1.681101487355824,-1.6285565600894416,-0.13281158017886446,-0.3753692557428043,-0.359819967547337,0.05879418066409135,0.13346725706000492,19.38459055179421,-5.9305572509765625,1.7222213745117188,-6.178979873657227,-0.5811423340447384,-1.6420710009218376,-1.5916648542753433,0.09312804715284698,0.10043648075762053,0.15516067799336739,0.011640923856723611,0.03080451515679199,0.030048573764626208,-11.867018461227417,-33.05431127548218,-32.39490365982056,-2.905711670223692,-8.210355004609188,-7.958324271376717,-2.263206243515014,-6.466455936431885,-6.341411590576172,-0.5667237783088227,-1.6032898117593763,-1.552411346787498,-0.5961522004014921,-1.681101487355824,-1.6285565600894416,-0.12300320446777421,-0.3476767015370406,-0.3329756987668388,0.007704549689390716,0.02176448465339014,0.02110308400284999,-0.6150160223388711,-1.738383507685203,-1.664878493834194,-0.11332001441290722,-0.3203103791357225,-0.30643735984242687,-0.13281158017886446,-0.3753692557428043,-0.359819967547337
-133.93832397460938,15.630454063415527,24.259559631347656,-2.512094259262085,-6.539352416992188,-6.283571720123291,-2.252170324325561,6.728194236755371,-9.470441818237305,0.375,-0.9253132708055714,-2.0768942796984744,-1.974145588829062,-0.6038631443248719,-1.6984089396866446,-1.6450077733296837,-0.1378437730482384,-0.38952266357352633,-0.37352836565841774,0.01685774892212299,0.021670380160573398,19.220433963101666,22.72178649902333,6.940784454345703,-2.5298595428466797,-0.5885702072479482,-1.661094826507291,-1.6101841395837801,0.08572321660756617,0.10558650661417347,0.10341629765782982,0.011984556746219793,0.03023295233707722,0.028290796483201843,-12.115906476974487,-32.998515129089355,-31.96538543701172,-2.942851036239741,-8.305474132536455,-8.050920697918901,-2.3079910278320312,-6.466455936431885,-6.283571720123291,-0.5736383930314191,-1.6224177705018537,-1.573435515096667,-0.6038631443248719,-1.6984089396866446,-1.6450077733296837,-0.12790795619484047,-0.36151915842460136,-0.34639389993003694,0.007804417055378832,0.022016312375582155,0.02133867008858275,-0.6395397809742023,-1.8075957921230068,-1.7319694996501847,-0.11810033435483572,-0.33383052722323797,-0.3195493224682324,-0.1378437730482384,-0.38952266357352633,-0.37352836565841774
-133.9750518798828,15.54545783996582,24.26940155029297,-2.5159969329833984,-6.552903175354004,-6.283790111541748,-3.075488328933716,5.225944519042969,-8.743099212646484,0.3833333333333333,-0.9012877930350816,-2.0207521608496233,-1.9076757923923848,-0.6113738759334976,-1.7152485410270581,-1.6609050715996203,-0.1429385553476842,-0.40381640141541847,-0.38736924125508126,-0.0030750019137919917,0.029213425775535897,19.23103687915369,-1.6260910034178622,-0.02620697021484375,-0.4683208465576172,-0.5961173038283639,-1.6796609806123317,-1.6276780508843711,0.06341634841738006,0.08296815001265738,0.06174347881532797,0.012111701958913553,0.029022945111773234,0.026895369222747358,-12.323912382125854,-33.084962368011475,-31.697574615478516,-2.9805865191418195,-8.398304903061659,-8.138390254421855,-2.365288496017456,-6.539352416992188,-6.283571720123291,-0.5808136634291132,-1.641929001443352,-1.5928630353648237,-0.6113738759334976,-1.7152485410270581,-1.6609050715996203,-0.13287560039341015,-0.37551633326303746,-0.3599578836874067,0.007905341906207572,0.022257942357769834,0.02156266649412588,-0.6643780019670508,-1.8775816663151872,-1.7997894184370336,-0.12294044821674499,-0.34751326890193257,-0.3328231810962726,-0.1429385553476842,-0.40381640141541847,-0.38736924125508126
-134.00767517089844,15.476073265075684,24.28450584411621,-2.525038957595825,-6.826531410217285,-6.2601318359375,-2.746755361557007,3.5392980575561523,-7.859433650970459,0.39166666666666666,-0.8825719964688683,-2.2229760440738007,-1.8182087194757068,-0.6187286425707381,-1.73377334139434,-1.6760568109285845,-0.14809462736910703,-0.4182645125937046,-0.4013363813461528,-0.06486700393930961,0.23423414337958254,19.407266802233497,-32.83538818359375,2.8389930725097656,-1.085042953491211,-0.6037002996566889,-1.6980298486025294,-1.6443168059971236,0.03433031596554436,0.12114707560679057,0.04130644937128643,0.012003493230691688,0.028225405900674655,0.025678891145209742,-12.483662843704224,-33.32676696777344,-31.52466869354248,-3.0185014982834444,-8.490149243012647,-8.221584029985618,-2.4395205974578857,-6.539352416992188,-6.2601318359375,-0.5883836350528447,-1.6616169335487805,-1.6110578140382863,-0.6187286425707381,-1.73377334139434,-1.6760568109285845,-0.13790643622388257,-0.3896665820013919,-0.3736605237373828,0.00800535305535983,0.022493062917794297,0.021776539023896226,-0.6895321811194128,-1.9483329100069595,-1.8683026186869138,-0.1278436451755187,-0.3613600766815057,-0.346248662879925,-0.14809462736910703,-0.4182645125937046,-0.4013363813461528
-134.02288818359375,15.422932624816896,24.30721473693848,-2.586364984512329,-6.819275856018066,-6.218724727630615,-0.9033244252204896,1.5071929693222046,-7.022412300109863,0.4,-0.9158254069371945,-2.142796551047055,-1.7122177183878868,-0.6263605209618814,-1.751629979319732,-1.6903252919151501,-0.1533142983771227,-0.4328614290880357,-0.4154224254454457,-0.1463956529692959,0.22726179895815002,19.390775785872084,0.87066650390625,4.968852996826172,-7.359123229980469,-0.6112956768384963,-1.7160324577567199,-1.6601703015724962,0.03592487952049216,0.13989714339864598,0.04448961981230867,0.011903487317810412,0.02789846815431075,0.02445186814105192,-12.630507230758667,-33.466763496398926,-31.387629985809326,-3.056478384192481,-8.5801622887836,-8.30085150786248,-2.4910120964050293,-6.539352416992188,-6.218724727630615,-0.5961522004014921,-1.681101487355824,-1.6285565600894416,-0.6263605209618814,-1.751629979319732,-1.6903252919151501,-0.14300056686420337,-0.4039668524826979,-0.3874952762504869,0.008104540821520635,0.02272553305159559,0.021980190175179163,-0.7150028343210169,-2.0198342624134895,-1.9374763812524345,-0.13281158017886446,-0.3753692557428043,-0.359819967547337,-0.1533142983771227,-0.4328614290880357,-0.4154224254454457
-134.0333709716797,15.390578269958496,24.34355735778809,-2.6391351222991943,-6.734831809997559,-6.035764217376709,-0.7689777612686157,-1.3109748363494873,-6.370708465576172,0.4083333333333333,-0.9398426444902377,-1.9869445417271248,-1.4672335327796775,-0.6341925429993001,-1.7681878505007915,-1.7025522380216473,-0.15859923623545022,-0.447596327842209,-0.42961036076229275,-0.27398651307635985,0.2513102697540391,19.223565633140378,10.133285522460938,21.95526123046875,-6.332416534423828,-0.6189037453580578,-1.7334497303857135,-1.674969437158937,0.05549696206100241,0.14031069501023807,0.1044038203975518,0.011961397385935215,0.027823117507771625,0.022876315472791335,-12.778630256652832,-33.4728946685791,-31.081982612609863,-3.094518726790289,-8.667248651928567,-8.374847185794685,-2.512094259262085,-6.539352416992188,-6.035764217376709,-0.6038631443248719,-1.6984089396866446,-1.6450077733296837,-0.6341925429993001,-1.7681878505007915,-1.7025522380216473,-0.14815809807552052,-0.4184122669025788,-0.40145335489347805,0.008204217257174597,0.022957340884533786,0.022170548454821987,-0.7407904903776026,-2.092061334512894,-2.00726677446739,-0.1378437730482384,-0.38952266357352633,-0.37352836565841774,-0.15859923623545022,-0.447596327842209,-0.42961036076229275
-134.0408172607422,15.377677917480469,24.389936447143555,-2.5956504344940186,-6.827534198760986,-6.286592483520508,-0.7227056622505188,-3.8177762031555176,-5.454039096832275,0.4166666666666667,-0.8678154936524805,-2.008900805170896,-1.6561130420613086,-0.6414243387797374,-1.7849286905438824,-1.716353180038825,-0.1639444390586147,-0.46247073359674135,-0.44391330392928297,-0.13237827506230207,0.18946071548444757,19.444337034626514,-11.124286651611328,-30.09939193725586,5.218162536621094,-0.626415984249031,-1.7507536805571609,-1.6892385185007655,0.051511036196135646,0.11802589512201833,0.10489729693830095,0.011948733118482727,0.02748452446321295,0.02173811573064444,-12.862186431884766,-33.7610764503479,-31.08500337600708,-3.132079921245155,-8.753768402785804,-8.446192592503827,-2.5159969329833984,-6.552903175354004,-6.035764217376709,-0.6113738759334976,-1.7152485410270581,-1.6609050715996203,-0.6414243387797374,-1.7849286905438824,-1.716353180038825,-0.15337823127759578,-0.4330018809072218,-0.4155303425476511,0.008303779724329509,0.02318627355173206,0.02235155037361304,-0.7668911563879789,-2.165009404536109,-2.0776517127382554,-0.1429385553476842,-0.40381640141541847,-0.38736924125508126,-0.1639444390586147,-0.46247073359674135,-0.44391330392928297
-134.03738403320312,15.378336906433104,24.44247055053711,-2.697140455245972,-7.042956829071045,-6.341263771057129,0.3878123462200165,-5.412365436553955,-4.823980331420898,0.425,-0.9405614694009765,-2.151705720743479,-1.6469068041821,-0.6492623510247455,-1.802859571550078,-1.7300774034070092,-0.16935495865048758,-0.4774945633596587,-0.45833061562434135,-0.22044015801946423,0.27009861075292496,19.657227357119684,-25.85071563720703,-6.560554504394531,-12.178802490234428,-0.6339936792672806,-1.7682758866617647,-1.7030729848622432,0.064063092149938,0.1145592143846095,0.11654786087399589,0.0120381999887142,0.0271148794443586,0.021202893149442167,-13.043329954147339,-34.25113010406494,-31.14247703552246,-3.1699683963364027,-8.841379433308823,-8.515364924311216,-2.525038957595825,-6.734831809997559,-6.035764217376709,-0.6187286425707381,-1.73377334139434,-1.6760568109285845,-0.6492623510247455,-1.802859571550078,-1.7300774034070092,-0.15866151193815645,-0.44773751329606987,-0.4297226174215031,0.00840408743076258,0.023412205118343566,0.022528202521343427,-0.7933075596907823,-2.2386875664803494,-2.1486130871075155,-0.14809462736910703,-0.4182645125937046,-0.4013363813461528,-0.16935495865048758,-0.4774945633596587,-0.45833061562434135
-134.02651977539062,15.394591331481934,24.49774742126465,-2.558903217315674,-6.697432518005371,-6.248149871826172,1.1927655935287476,-6.987743854522705,-3.653512716293335,0.43333333333333335,-0.7741804330088038,-1.7354068274339598,-1.4909061718025987,-0.6557138546331522,-1.8173212951120277,-1.7425016215053641,-0.17481924077243052,-0.49263890748559225,-0.47285146247021936,-0.09995345964310443,0.13261545278633985,19.318700609295327,41.46291732788086,11.173667907714844,16.588468551635795,-0.6413907216797634,-1.7849854774053022,-1.716361946977599,0.05401345764320104,0.13411410210763283,0.1158558763708319,0.011670866786470871,0.026267094886798254,0.020856724782617117,-13.077194213867188,-34.12203121185303,-31.130495071411133,-3.206953608398817,-8.92492738702651,-8.581809734887996,-2.558903217315674,-6.697432518005371,-6.035764217376709,-0.6263605209618814,-1.751629979319732,-1.6903252919151501,-0.6557138546331522,-1.8173212951120277,-1.7425016215053641,-0.16400643461882114,-0.46261239227444734,-0.4440256336463165,0.00850127786645196,0.02363097914109746,0.02270196658025983,-0.8200321730941057,-2.3130619613722367,-2.2201281682315823,-0.1533142983771227,-0.4328614290880357,-0.4154224254454457,-0.17481924077243052,-0.49263890748559225,-0.47285146247021936
-134.01869201660156,15.423561096191406,24.555139541625977,-2.58181095123291,-6.947667598724365,-6.3399200439453125,0.7556967735290527,-8.175539016723633,-2.764788150787353,0.44166666666666665,-0.7702032462299209,-1.91640312274491,-1.5204607550593545,-0.6621322150184016,-1.833291321134902,-1.7551721277975254,-0.1803370092309172,-0.5079163351617164,-0.4874778968685321,-0.10115537150630508,0.24927260294301626,19.559771780617616,-30.028209686279297,-11.012420654296875,-2.7489280700683594,-0.6485450604910674,-1.8013177457683363,-1.7293313141540743,0.054660800482951084,0.14475541675836906,0.12614824821339674,0.011104237021881489,0.025724460303617077,0.02078047267433166,-13.072640180587769,-34.250422954559326,-31.25169038772583,-3.242725302455337,-9.006588728841681,-8.646656570770372,-2.558903217315674,-6.697432518005371,-6.035764217376709,-0.6341925429993001,-1.7681878505007915,-1.7025522380216473,-0.6621322150184016,-1.833291321134902,-1.7551721277975254,-0.16941097678958003,-0.4776233734891836,-0.4584367279309337,0.008593710066425661,0.02384519000834254,0.022875066195503356,-0.8470548839479002,-2.388116867445918,-2.2921836396546684,-0.15859923623545022,-0.447596327842209,-0.42961036076229275,-0.1803370092309172,-0.5079163351617164,-0.4874778968685321
-133.99205017089844,15.459395408630373,24.61516571044922,-2.554074048995972,-7.0574870109558105,-6.4029741287231445,2.9294745922088623,-9.016145706176758,-2.341230630874634,0.45,-0.7158981963303779,-1.9546670611805048,-1.5206489299804353,-0.6680980333211547,-1.8495802133114063,-1.767844202214029,-0.1859044928419268,-0.5233295036059782,-0.5022099318869824,-0.05283454765089157,0.3006184584087959,19.67084843731517,-13.178329467773438,-7.566490173339844,3.328428268432564,-0.6553261585554383,-1.817596218330459,-1.7423897069925505,0.05820934432716644,0.1522562045649359,0.05903541513921435,0.010483604493470534,0.02526719167110748,0.020253565666735068,-12.987579107284546,-34.57307815551758,-31.618900299072266,-3.2766307927771914,-9.087981091652296,-8.711948534962753,-2.554074048995972,-6.697432518005371,-6.248149871826172,-0.6414243387797374,-1.7849286905438824,-1.716353180038825,-0.6680980333211547,-1.8495802133114063,-1.767844202214029,-0.17487202811087535,-0.49277000864193743,-0.47295664215587163,0.008680932281633724,0.024055646030872433,0.023043811581058983,-0.8743601405543767,-2.4638500432096873,-2.364783210779358,-0.1639444390586147,-0.46247073359674135,-0.44391330392928297,-0.1859044928419268,-0.5233295036059782,-0.5022099318869824
-133.95330810546875,15.501459121704102,24.679237365722656,-2.447787284851074,-6.921422004699707,-6.462296009063721,4.239848136901856,-9.824840545654297,-2.166900634765625,0.4583333333333333,-0.5844480127306215,-1.7480102722623316,-1.516735489631606,-0.6729684334272432,-1.8641469655802592,-1.7804836646276259,-0.19151256312048717,-0.5388640616524804,-0.5170472957588793,0.09268387822517091,0.20956176577747687,19.587858069783085,16.327800750732422,-7.118625640869141,12.754411697387749,-0.6616349774849395,-1.8334398733377348,-1.755215803910311,0.08887598644900076,0.14441950539659237,0.07995331067376489,0.009468462663655478,0.024486841250241434,0.019947009491643953,-12.839715957641602,-34.6669659614563,-31.79460382461548,-3.3081748874246975,-9.167199366688674,-8.776079019551554,-2.447787284851074,-6.697432518005371,-6.248149871826172,-0.6492623510247455,-1.802859571550078,-1.7300774034070092,-0.6729684334272432,-1.8641469655802592,-1.7804836646276259,-0.18038565292324985,-0.5080486742530852,-0.4875834405217909,0.00875969821349619,0.024259657686365184,0.02321003606386406,-0.9019282646162492,-2.540243371265426,-2.4379172026089546,-0.16935495865048758,-0.4774945633596587,-0.45833061562434135,-0.19151256312048717,-0.5388640616524804,-0.5170472957588793
-133.91262817382812,15.547392845153809,24.745370864868164,-2.3869924545288086,-6.851281642913818,-6.510132789611816,4.408632755279541,-10.365159034729004,-1.945939064025879,0.4666666666666667,-0.5001621989443192,-1.6097537622610458,-1.501100723359385,-0.6771364517517792,-1.877561580265768,-1.7929928373222874,-0.19715536688508534,-0.5545104081546951,-0.5319889027365651,0.1861568841661396,0.1539496437986145,19.55480719093693,8.41684341430664,-5.740413665771484,7.295379638671875,-0.6672097976303462,-1.8483802750808729,-1.7677988906933664,0.08427431943940492,0.13305845970386038,0.1029806844065152,0.008520972091052566,0.023947409678529943,0.019968897435979023,-12.529567956924438,-34.47529077529907,-31.963472843170166,-3.336048988151731,-9.241901375404364,-8.838994453466832,-2.3869924545288086,-6.697432518005371,-6.248149871826172,-0.6557138546331522,-1.8173212951120277,-1.7425016215053641,-0.6771364517517792,-1.877561580265768,-1.7929928373222874,-0.1859457345701694,-0.5234518432120925,-0.5023150979442357,0.008830399223515964,0.02445902143890902,0.023376439818271165,-0.929728672850847,-2.617259216060462,-2.5115754897211784,-0.17481924077243052,-0.49263890748559225,-0.47285146247021936,-0.19715536688508534,-0.5545104081546951,-0.5319889027365651
-133.87403869628906,15.59820556640625,24.811752319335938,-2.261787414550781,-6.893153667449951,-6.492702007293701,4.137941360473633,-10.74079132080078,-1.5749680995941162,0.475,-0.3532847293649426,-1.5844650920975196,-1.4206133610731602,-0.6800804911631537,-1.8907654560332472,-1.804831281997897,-0.20282270431144495,-0.5702667869549721,-0.5470291634198808,0.29293299886398383,0.24241402277035545,19.538404537587628,-5.0246429443359375,2.091693878173828,15.024604797363335,-0.6720831249363466,-1.8630691072651164,-1.7802648227918731,0.12994496275031933,0.07762827413216682,0.06994150138326691,0.007162040787542033,0.022621605238253045,0.019681694040232782,-12.232452154159546,-34.67101192474365,-32.208024978637695,-3.3604156246817327,-9.315345536325582,-8.901324113959365,-2.261787414550781,-6.851281642913818,-6.3399200439453125,-0.6621322150184016,-1.833291321134902,-1.7551721277975254,-0.6800804911631537,-1.8907654560332472,-1.804831281997897,-0.19154642727797228,-0.5389774191059684,-0.517150638134168,0.008889576074922141,0.024647308850953068,0.023540429725729853,-0.9577321363898614,-2.6948870955298423,-2.5857531906708395,-0.1803370092309172,-0.5079163351617164,-0.4874778968685321,-0.20282270431144495,-0.5702667869549721,-0.5470291634198808
-133.84495544433594,15.655152320861816,24.8792724609375,-2.2127702236175537,-6.86149263381958,-6.471558094024658,2.9557418823242188,-11.395441055297852,-1.089962601661682,0.48333333333333334,-0.28429953994963686,-1.486267931159964,-1.3374079554517735,-0.6824496539960674,-1.9031510221262469,-1.8159763482933287,-0.2085097847614122,-0.5861263788060241,-0.5621622996556586,0.3399071137278725,0.2520113600490761,19.488762876487282,3.7993240356445312,2.5372695922851562,5.882062911987251,-0.6761466127318796,-1.8770410474633856,-1.7924256668910339,0.13839983170842118,0.08325377887958993,0.0408010352071082,0.005724158545114042,0.021158425519279118,0.019076919213506665,-11.86341142654419,-34.58483695983887,-32.33966302871704,-3.380733063659398,-9.385205237316928,-8.96212833445517,-2.2127702236175537,-6.851281642913818,-6.4029741287231445,-0.6680980333211547,-1.8495802133114063,-1.767844202214029,-0.6824496539960674,-1.9031510221262469,-1.8159763482933287,-0.19718098238407128,-0.5546194278348299,-0.5320875186915932,0.008936744920639639,0.024823530238534584,0.023699332382274126,-0.9859049119203565,-2.7730971391741495,-2.6604375934579663,-0.1859044928419268,-0.5233295036059782,-0.5022099318869824,-0.2085097847614122,-0.5861263788060241,-0.5621622996556586
-133.8182830810547,15.714981079101562,24.95062255859375,-2.198975086212158,-6.920304775238037,-6.481046676635742,2.527714967727661,-11.909479141235352,-1.1823657751083374,0.49166666666666664,-0.2512871073794358,-1.479022109484566,-1.2855962966148962,-0.6845437132242294,-1.9154762063719515,-1.8266896507651194,-0.21421431570494742,-0.6020886805257905,-0.5773847134120346,0.3604032121160854,0.2946344083976384,19.531798996419333,-7.057456970214844,-1.1386299133300781,1.655416488647461,-0.6794357487124947,-1.8902202460754947,-1.8041947566012517,0.11030663860137116,0.032505185886911904,0.018656154929076154,0.004547074687406261,0.020281910225226994,0.0182546583707804,-11.508312463760376,-34.447654724121094,-32.41773557662964,-3.397178743562473,-9.451101230377473,-9.020973783006259,-2.198975086212158,-6.851281642913818,-6.462296009063721,-0.6729684334272432,-1.8641469655802592,-1.7804836646276259,-0.6845437132242294,-1.9154762063719515,-1.8266896507651194,-0.20284294695667543,-0.5703712632187925,-0.5471224749966037,0.008974236076474263,0.024992496959024838,0.023851360140821537,-1.0142147347833772,-2.8518563160939623,-2.7356123749830186,-0.19151256312048717,-0.5388640616524804,-0.5170472957588793,-0.21421431570494742,-0.6020886805257905,-0.5773847134120346
-133.78480529785156,15.771992683410645,25.02465438842773,-2.224382162094116,-6.976667404174805,-6.549385070800781,3.254955291748047,-11.942498207092283,-1.5902217626571655,0.5,-0.25759390793849835,-1.4690600799082913,-1.2926360187907884,-0.6866903291237169,-1.9277183737045205,-1.837461617588376,-0.21993673511431172,-0.6181530003066614,-0.5926968935586043,0.3750323111139811,0.28458655233850333,19.622979676784947,-6.763515472412109,-8.200607299804688,-3.048849105834961,-0.6821801278517893,-1.9029345277003469,-1.8155903471934018,0.07633485924522268,0.05047687701738422,0.030652627929117437,0.0037365839510998156,0.01977025773261379,0.017522135583106252,-11.284907341003418,-34.50290012359619,-32.5048246383667,-3.4109006392589465,-9.514672638501734,-9.077951735967009,-2.198975086212158,-6.851281642913818,-6.471558094024658,-0.6771364517517792,-1.877561580265768,-1.7929928373222874,-0.6866903291237169,-1.9277183737045205,-1.837461617588376,-0.2085277813554403,-0.5862290509496286,-0.5622523945565486,0.009005289246063352,0.025157221165105718,0.02399733534113646,-1.0426389067772015,-2.9311452547481434,-2.8112619727827433,-0.19715536688508534,-0.5545104081546951,-0.5319889027365651,-0.21993673511431172,-0.6181530003066614,-0.5926968935586043
-133.7444305419922,15.826982498168944,25.09982681274414,-2.1816494464874268,-6.7844557762146,-6.453463077545166,4.029874801635742,-11.826146125793455,-1.8887171745300293,0.5083333333333333,-0.19612158011008152,-1.2123788109230782,-1.1363078106985096,-0.6883246756246342,-1.9378215304622128,-1.846930849344197,-0.22567277407785033,-0.6343015130605132,-0.608087983969806,0.39959984071936416,0.21907673105754272,19.41353817783922,23.06539535522461,11.510639190673828,5.127925872802734,-0.6844177726263603,-1.9149865177396357,-1.8263779495977837,0.030194989994410434,0.07133202612401097,0.0363607591222211,0.003283662838188584,0.018778422084328988,0.016716898157888013,-11.079564332962036,-34.43607425689697,-32.44815492630005,-3.4220888631318016,-9.574932588698179,-9.131889747988918,-2.1816494464874268,-6.7844557762146,-6.453463077545166,-0.6800804911631537,-1.8907654560332472,-1.804831281997897,-0.6883246756246342,-1.9378215304622128,-1.846930849344197,-0.21423126279399335,-0.6021872719307922,-0.5774722108031968,0.009032599287959932,0.025313575089424552,0.024136573393470924,-1.0711563139699667,-3.0109363596539613,-2.887361054015984,-0.20282270431144495,-0.5702667869549721,-0.5470291634198808,-0.22567277407785033,-0.6343015130605132,-0.608087983969806
-133.71482849121094,15.879493713378906,25.16969108581543,-2.213140726089477,-6.741363525390625,-6.46718692779541,2.911608457565308,-11.21721649169922,-1.6317036151885986,0.5166666666666666,-0.20918003625751913,-1.1074970280360796,-1.0909727225633352,-0.6900678425934468,-1.9470506723625136,-1.8560222886988913,-0.23142333943279572,-0.6505269353302008,-0.6235548363756301,0.39346504753605355,0.1675974724284067,19.4009111745232,5.171070098876953,-1.6468620300292969,-3.7789535522460405,-0.686415242912419,-1.926243561005489,-1.8366161509379826,0.016407774346197078,0.09615394182625936,0.03759162106959062,0.00301212586735122,0.017452518514225565,0.015876420084153228,-11.030917644500732,-34.28428411483765,-32.42263984680176,-3.4320762145620947,-9.631217805027445,-9.183080754689913,-2.1816494464874268,-6.741363525390625,-6.453463077545166,-0.6824496539960674,-1.9031510221262469,-1.8159763482933287,-0.6900678425934468,-1.9470506723625136,-1.8560222886988913,-0.21995138981826345,-0.6182393016058381,-0.5927773453943468,0.009057654583599677,0.025458671156727414,0.024268756777561927,-1.0997569490913173,-3.0911965080291903,-2.963886726971734,-0.2085097847614122,-0.5861263788060241,-0.5621622996556586,-0.23142333943279572,-0.6505269353302008,-0.6235548363756301
-133.68231201171875,15.930161476135254,25.23032569885254,-2.254004955291748,-6.620142936706543,-6.490921974182129,3.5522468090057373,-10.250639915466309,-1.0838408470153809,0.525,-0.2312108866621423,-0.9265471513574788,-1.0559768559010276,-0.691994599982298,-1.9547718986238258,-1.8648220958314,-0.23718996109931487,-0.666816701152066,-0.6390950205075585,0.3929790905372718,0.05048140574537562,19.343200825425853,14.546470642089844,-2.84820556640625,-4.903707504272514,-0.6883242321096651,-1.9365677363050051,-1.8463853004455966,0.027296079808102995,0.14260466337231303,0.03691271311840156,0.0028928247461078092,0.015540425728228958,0.015005293419021081,-11.072152376174927,-34.04293441772461,-32.44200372695923,-3.4416211605483253,-9.682838681525025,-9.231926502227983,-2.1816494464874268,-6.620142936706543,-6.453463077545166,-0.6845437132242294,-1.9154762063719515,-1.8266896507651194,-0.691994599982298,-1.9547718986238258,-1.8648220958314,-0.225687425085844,-0.6343773660750465,-0.6081638895647268,0.009081739051573529,0.025587663336708602,0.02439368523250248,-1.12843712542922,-3.1718868303752323,-3.0408194478236337,-0.21421431570494742,-0.6020886805257905,-0.5773847134120346,-0.23718996109931487,-0.666816701152066,-0.6390950205075585
-133.66526794433594,15.976495742797852,25.27839469909668,-2.2317190170288086,-6.500869274139404,-6.471937656402588,2.109985589981079,-8.885887145996094,-0.4189208745956421,0.5333333333333333,-0.19014856821113435,-0.7502313326616878,-0.9788643759458582,-0.6935791713840574,-1.9610238263960065,-1.8729792989642822,-0.24296978752751536,-0.6831585663720328,-0.6547031813322609,0.42501457373770973,-0.012975624145556598,19.24117396531674,14.31283950805664,2.278118133544922,2.6743125915527344,-0.6901313237416307,-1.9456772603098158,-1.8556432300854293,0.026579576360459517,0.17914266099930148,0.03758506911302273,0.0027598869066319297,0.013269795560874166,0.014066015402015873,-11.104896306991577,-33.62349891662598,-32.432894706726074,-3.450656618708153,-9.72838630154908,-9.278216150427147,-2.1816494464874268,-6.500869274139404,-6.453463077545166,-0.6866903291237169,-1.9277183737045205,-1.837461617588376,-0.6935791713840574,-1.9610238263960065,-1.8729792989642822,-0.2314385194503576,-0.6505913432442949,-0.623627583148772,0.009104728408292542,0.02569773856695555,0.02451084665086388,-1.157192597251788,-3.2529567162214743,-3.11813791574386,-0.21993673511431172,-0.6181530003066614,-0.5926968935586043,-0.24296978752751536,-0.6831585663720328,-0.6547031813322609
-133.6580810546875,16.018278121948242,25.31049919128418,-2.1884007453918457,-6.402285575866699,-6.477565765380859,1.4424912929534912,-7.136317729949951,0.4208418726921081,0.5416666666666666,-0.12882111291174247,-0.5970804806023304,-0.9271162844510483,-0.694652680658322,-1.9659994970676926,-1.8807052680013743,-0.24875855986633472,-0.6995418955142635,-0.6703757252322724,0.4833787568710583,-0.06620045500571896,19.164099589986165,11.83004379272461,-0.6753730773925781,5.198192596435547,-0.6917237940485517,-1.9533334849824502,-1.864291960168029,0.030069681659704504,0.16035017480190647,0.013743858614830871,0.0025685754303247433,0.011199695469762377,0.013369210975763908,-11.068914890289307,-33.04911708831787,-32.36107540130615,-3.4586189702427586,-9.766667424912251,-9.321459800840145,-2.1816494464874268,-6.402285575866699,-6.453463077545166,-0.6883246756246342,-1.9378215304622128,-1.846930849344197,-0.694652680658322,-1.9659994970676926,-1.8807052680013743,-0.23720288440076218,-0.6668691222858152,-0.6391633494835056,0.009126028137228997,0.025790381405647076,0.02462218240665975,-1.186014422003811,-3.334345611429076,-3.195816747417528,-0.22567277407785033,-0.6343015130605132,-0.608087983969806,-0.24875855986633472,-0.6995418955142635,-0.6703757252322724
-133.6683807373047,16.055728912353516,25.331993103027344,-2.191504716873169,-6.24584436416626,-6.380659580230713,-0.2999811172485351,-5.9303741455078125,0.9289003014564514,0.55,-0.11446290412437587,-0.3888412327376969,-0.774238403409858,-0.6956065381926918,-1.96923984067384,-1.8871572546964563,-0.2545552810179405,-0.7159522275198789,-0.6861020356880762,0.4567568731637029,-0.11878014766203836,18.991685349629112,18.772945404052734,11.628742218017578,-0.37247657775878906,-0.6931801665621632,-1.9596171470247756,-1.8723372412384809,0.027663490469452295,0.19158063206517878,0.04394962097171479,0.0021969814804691933,0.008898062843871816,0.0123766311629968,-11.078770160675049,-32.51050567626953,-32.2882719039917,-3.465900832810816,-9.798085735123879,-9.361686206192404,-2.1884007453918457,-6.24584436416626,-6.380659580230713,-0.6900678425934468,-1.9470506723625136,-1.8560222886988913,-0.6956065381926918,-1.96923984067384,-1.8871572546964563,-0.24297938578878026,-0.6831992651776884,-0.6547661598271597,0.00914412299127768,0.025863629417660003,0.024725143748663258,-1.2148969289439013,-3.415996325888442,-3.273830799135798,-0.23142333943279572,-0.6505269353302008,-0.6235548363756301,-0.2545552810179405,-0.7159522275198789,-0.6861020356880762
-133.69174194335938,16.08841896057129,25.34327507019043,-2.2774581909179688,-6.288959503173828,-6.339406967163086,-1.5388774871826172,-4.647805213928223,1.2925583124160769,0.5583333333333333,-0.1824064791223976,-0.38171005206022546,-0.6788037270077645,-0.6971265921853784,-1.972420757774342,-1.892813952421521,-0.260364669286152,-0.7323890671679983,-0.7018754852915888,0.36050385003877217,-0.09430357505972248,19.017988485499632,-5.173816680908203,4.950313568115234,-10.314416885375977,-0.6945919164805494,-1.9646911641071412,-1.8796955739830068,0.03884038299903187,0.15334726803746007,0.06773535717327654,0.0019512455032046677,0.006964014745863604,0.011125609156224119,-11.14308762550354,-32.058101654052734,-32.160491943359375,-3.4729595824027473,-9.823455820535706,-9.398477869915034,-2.1884007453918457,-6.24584436416626,-6.339406967163086,-0.691994599982298,-1.9547718986238258,-1.8648220958314,-0.6971265921853784,-1.972420757774342,-1.892813952421521,-0.24876765175945148,-0.699571691545248,-0.6704302896103513,0.009160317970526763,0.025920952253887554,0.024817574208423454,-1.2438382587972574,-3.49785845772624,-3.3521514480517567,-0.23718996109931487,-0.666816701152066,-0.6390950205075585,-0.260364669286152,-0.7323890671679983,-0.7018754852915888
-133.72093200683594,16.11355972290039,25.347637176513672,-2.347409963607788,-6.310276031494141,-6.298716068267822,-1.994017243385315,-3.482332229614258,1.2222474813461304,0.5666666666666667,-0.23324178448421407,-0.3528206013551749,-0.5852324843328685,-0.6990702737227469,-1.9753609294523018,-1.8976908897909617,-0.2661902549005082,-0.7488504082467675,-0.7176895760398468,0.2794251404161586,-0.07881254786038369,19.02517506142737,-2.5579833984375,4.882907867431641,-8.39421272277832,-0.6960070512286393,-1.9688089702728366,-1.8862693327749191,0.06662680415023538,0.1020380180414445,0.07952094311561067,0.0021520940311418276,0.005582571813768613,0.009768011975559692,-11.23649263381958,-31.748234748840332,-31.96828603744507,-3.4800352561431964,-9.844044851364183,-9.431346663874596,-2.1884007453918457,-6.24584436416626,-6.298716068267822,-0.6935791713840574,-1.9610238263960065,-1.8729792989642822,-0.6990702737227469,-1.9753609294523018,-1.8976908897909617,-0.2545677105196901,-0.7159784329641882,-0.6861492007168091,0.009178050887340685,0.025967189716758973,0.024898635457487914,-1.2728385525984507,-3.579892164820941,-3.430746003584045,-0.24296978752751536,-0.6831585663720328,-0.6547031813322609,-0.2661902549005082,-0.7488504082467675,-0.7176895760398468
-133.75282287597656,16.129444122314453,25.346118927001957,-2.3305044174194336,-6.390359401702881,-6.344051361083984,-2.1341142654418945,-2.187904119491577,0.8568729758262634,0.575,-0.19699078356665822,-0.38242743816672586,-0.578249088787441,-0.7007118635858024,-1.9785478247703578,-1.9025096321975237,-0.27202952043038986,-0.7653383067865205,-0.7335438229748262,0.30701618267061764,-0.03521416433919289,19.106205291452195,-9.610004425048828,-5.440235137939453,2.028665542602539,-0.6974335896689883,-1.9723137699477067,-1.8921753994215673,0.07497551629568733,0.06707058684026813,0.06774262318763939,0.00247949763273379,0.004936576499955025,0.008578613557758382,-11.335278034210205,-31.63772487640381,-31.840399742126465,-3.4871679483449416,-9.861568849738534,-9.460876997107837,-2.1884007453918457,-6.24584436416626,-6.298716068267822,-0.694652680658322,-1.9659994970676926,-1.8807052680013743,-0.7007118635858024,-1.9785478247703578,-1.9025096321975237,-0.26037965710026506,-0.7324143810470858,-0.7019173290453221,0.009198584737748719,0.02600832232601608,0.024969966557366427,-1.3018982855013252,-3.662071905235429,-3.5095866452266105,-0.24875855986633472,-0.6995418955142635,-0.6703757252322724,-0.27202952043038986,-0.7653383067865205,-0.7335438229748262
-133.78453063964844,16.136564254760742,25.336244583129883,-2.340687990188598,-6.363530158996582,-6.327476501464844,-1.827549934387207,-0.8060287237167358,0.791262149810791,0.5833333333333334,-0.1881065732355296,-0.3052608829166452,-0.509710385948738,-0.7022794183627652,-1.98109166546133,-1.9067572187470965,-0.2778818489167462,-0.7818474039986982,-0.7494334664643854,0.29218023645006,-0.04407642677010096,19.079465098186258,3.2195091247558594,1.988983154296875,-1.2220287322997514,-0.6989589372098769,-1.9753322036264342,-1.897385789570712,0.06534939142258117,0.05788400919112108,0.029632711432814866,0.0026789367874347145,0.0047197947105795,0.007741045711139121,-11.487565279006956,-31.59896945953369,-31.69031047821045,-3.4947946860493846,-9.876661018132172,-9.48692894785356,-2.191504716873169,-6.24584436416626,-6.298716068267822,-0.6956065381926918,-1.96923984067384,-1.8871572546964563,-0.7022794183627652,-1.98109166546133,-1.9067572187470965,-0.26620431491034735,-0.7488754827439726,-0.7177288772917446,0.009220892976657015,0.026047626708150223,0.02503438721981812,-1.3310215745517366,-3.7443774137198633,-3.588644386458723,-0.2545552810179405,-0.7159522275198789,-0.6861020356880762,-0.2778818489167462,-0.7818474039986982,-0.7494334664643854
-133.8243408203125,16.13495635986328,25.31642341613769,-2.361931800842285,-6.563986301422119,-6.404390335083008,-2.467880249023437,0.785575807094574,0.8010467290878296,0.5916666666666667,-0.19023659389265735,-0.45450358527395984,-0.5347471895220641,-0.7038647233118707,-1.984879195338613,-1.911213445326447,-0.2837473882776785,-0.7983880639598533,-0.7653602451754391,0.28492811424919945,0.051462478362690266,19.27557030211192,-24.054737091064453,-9.229660034179688,-2.549257278442436,-0.7006105742337128,-1.9784600745593888,-1.90219702769671,0.03234617611668346,0.10876669509074974,0.038680260651667416,0.0026408068397675392,0.004853249683980139,0.007254933344072489,-11.657992362976074,-31.91711139678955,-31.714041233062744,-3.503052871168564,-9.892300372796944,-9.51098513848355,-2.2774581909179688,-6.288959503173828,-6.298716068267822,-0.6971265921853784,-1.972420757774342,-1.892813952421521,-0.7038647233118707,-1.984879195338613,-1.911213445326447,-0.2720427363622949,-0.7653626500319677,-0.7335805191892173,0.009242876668550828,0.02608800953841287,0.025094817773331918,-1.3602136818114747,-3.826813250159838,-3.6679025959460865,-0.260364669286152,-0.7323890671679983,-0.7018754852915888,-0.2837473882776785,-0.7983880639598533,-0.7653602451754391
-133.85665893554688,16.119115829467773,25.29037857055664,-2.3051352500915527,-6.872881889343262,-6.4644646644592285,-1.361319661140442,2.4461464881896973,0.0968089923262596,0.6,-0.1148461957727216,-0.7084860856170696,-0.5423853011168296,-0.70482177494331,-1.9907832460520885,-1.915733322835754,-0.2896209030688727,-0.8149779243436207,-0.7813246895324037,0.323155792456018,0.2639028448695188,19.51388494400006,-37.06747055053711,-7.208919525146484,6.815586090087891,-0.702149610785299,-1.982132572214938,-1.9067809017795565,0.02121926342838691,0.2290061128837525,0.06641814516213468,0.0023263896936915928,0.005961693199890383,0.0070828297265678455,-11.685669422149658,-32.501033782958984,-31.839098930358887,-3.5107480539264952,-9.910662861074691,-9.533904508897782,-2.3051352500915527,-6.310276031494141,-6.298716068267822,-0.6990702737227469,-1.9753609294523018,-1.8976908897909617,-0.70482177494331,-1.9907832460520885,-1.915733322835754,-0.27789398311883906,-0.781880421467092,-0.7494703600373802,0.009262185588991303,0.026137001448730556,0.025153831381703306,-1.3894699155941954,-3.90940210733546,-3.7473518001869013,-0.2661902549005082,-0.7488504082467675,-0.7176895760398468,-0.2896209030688727,-0.8149779243436207,-0.7813246895324037
-133.87014770507812,16.089719772338867,25.264095306396484,-2.279869079589844,-6.991209506988525,-6.458621501922607,0.8984065055847168,3.628883838653565,-1.0863252878189087,0.6083333333333333,-0.07189459001973875,-0.7689264753933278,-0.48425098340892436,-0.7054208965268078,-1.9971909666803662,-1.9197687476974952,-0.29549941053992945,-0.8316211823992904,-0.7973227624298829,0.323343380661107,0.3615774590087544,19.585137640723683,-14.19931411743164,0.7011795043945312,3.031940460205025,-0.7034197353461111,-1.986498579660551,-1.9111964733608633,0.03186822253080594,0.28374774884735304,0.06324784239753728,0.0019236207841957073,0.007545812354120854,0.006878142362391563,-11.618128538131714,-33.18196725845337,-31.999004364013672,-3.517098676730556,-9.932492898302755,-9.555982366804317,-2.279869079589844,-6.363530158996582,-6.327476501464844,-0.7007118635858024,-1.9785478247703578,-1.9025096321975237,-0.7054208965268078,-1.9971909666803662,-1.9197687476974952,-0.28375581424672336,-0.7984345762975966,-0.7653969973153874,0.009277941947857287,0.026198915497313523,0.025211139606465243,-1.4187790712336168,-3.992172881487983,-3.826984986576937,-0.27202952043038986,-0.7653383067865205,-0.7335438229748262,-0.29549941053992945,-0.8316211823992904,-0.7973227624298829
-133.86289978027344,16.050729751586914,25.234350204467773,-2.2774016857147217,-6.993298530578613,-6.510846614837647,3.507524013519287,4.679426193237305,-1.6095731258392334,0.6166666666666667,-0.052184637653222676,-0.712769033288911,-0.4843963681995662,-0.7058557685072514,-2.0031307086244405,-1.9238053840991582,-0.30138154194415656,-0.8483139383044941,-0.8133544739640425,0.34504113546277854,0.33019000349028604,19.621005432383868,-0.2506828308105469,-6.267013549804794,0.29608726501470173,-0.7044485163304011,-1.9914151564313678,-1.9154556237411904,0.0373754530389261,0.281154985221891,0.07010737426268095,0.0014239912402534967,0.008948557302231326,0.006746424612846723,-11.565025806427002,-33.7849063873291,-32.165799617767334,-3.522242581652005,-9.957075782156839,-9.577278118705951,-2.2774016857147217,-6.363530158996582,-6.327476501464844,-0.7022794183627652,-1.98109166546133,-1.9067572187470965,-0.7058557685072514,-2.0031307086244405,-1.9238053840991582,-0.2896262185494767,-0.8150297026011912,-0.7813591275132307,0.009289414728057473,0.026273224518726032,0.025267336076931088,-1.4481310927473834,-4.075148513005956,-3.9067956375661534,-0.2778818489167462,-0.7818474039986982,-0.7494334664643854,-0.30138154194415656,-0.8483139383044941,-0.8133544739640425
-133.83152770996094,16.003171920776367,25.20155334472656,-2.2931814193725586,-7.045004367828369,-6.487570762634277,6.49548864364624,5.680443286895752,-2.133064031600952,0.625,-0.050815129591771147,-0.7064357634670584,-0.4093988607621313,-0.7062792279205161,-2.0090176733199994,-1.927217041272176,-0.3072672021768275,-0.8650557522488274,-0.8294146159746439,0.30927135451840415,0.3654212998295432,19.64616594349489,-6.204700469970703,2.7931022644044035,-1.8935680389404297,-0.7052484782419512,-1.9970003580031015,-1.9195475882462063,0.034507118224589906,0.19459226690519016,0.0397671186951881,0.0009431102590100676,0.009586559121849931,0.006344383452563458,-11.517519235610962,-34.46638059616089,-32.32589387893677,-3.526242391209756,-9.985001790015508,-9.597737941231031,-2.2774016857147217,-6.563986301422119,-6.404390335083008,-0.7038647233118707,-1.984879195338613,-1.911213445326447,-0.7062792279205161,-2.0090176733199994,-1.927217041272176,-0.29550328920149294,-0.8316713722512171,-0.7973553574152825,0.009297139237229314,0.0263531030693984,0.0253201420422612,-1.4775164460074648,-4.1583568612560855,-3.9867767870764124,-0.2837473882776785,-0.7983880639598533,-0.7653602451754391,-0.3072672021768275,-0.8650557522488274,-0.8294146159746439
-133.77508544921875,15.945541381835938,25.1729736328125,-2.3493752479553223,-6.966549396514893,-6.344720840454102,9.36786937713623,6.131484508514404,-3.32287073135376,0.6333333333333333,-0.08945781224965721,-0.5708283041561941,-0.216829385787225,-0.7070247096892632,-2.0137745758546344,-1.929023952820403,-0.3131590747575714,-0.8818372070476159,-0.8454898155814806,0.19621575717526496,0.35562138293064366,19.512725900576516,9.414596557617188,17.141990661621094,-6.743259429931641,-0.7058804755174297,-2.002779434106306,-1.9231096897449973,0.029248038682358903,0.06322653972311837,0.06408682559797137,0.0008368012771018823,0.009152481362251544,0.005429215354687753,-11.504962682723999,-34.86894369125366,-32.26622438430786,-3.5294023775871484,-10.013897170531529,-9.615548448724986,-2.2774016857147217,-6.872881889343262,-6.344720840454102,-0.70482177494331,-1.9907832460520885,-1.915733322835754,-0.7070247096892632,-2.0137745758546344,-1.929023952820403,-0.3013856264974716,-0.8483612008687696,-0.8133812714964908,0.009304075568522446,0.02642926710642289,0.025364973965998325,-1.5069281324873578,-4.241806004343848,-4.066906357482454,-0.2896209030688727,-0.8149779243436207,-0.7813246895324037,-0.3131590747575714,-0.8818372070476159,-0.8454898155814806
-133.71449279785156,15.887547492980955,25.14803695678711,-2.439610242843628,-6.978203773498535,-6.259836673736572,9.73533058166504,5.888277530670166,-3.676091194152832,0.6416666666666666,-0.16111548212163518,-0.5265487122234287,-0.08473191663464785,-0.7083673387069436,-2.0181624817898296,-1.9297300521256917,-0.31906213591346255,-0.8986552277291978,-0.8615708993491947,0.07126905514264181,0.36247657315060844,19.4896752362365,-1.3985252380371094,10.186100006103516,-10.82819938659668,-0.7065895882701565,-2.0082552812538537,-1.9259090356029849,0.06892530876960658,0.030038066785485325,0.10645986490899541,0.0011565447080374319,0.008334818213829002,0.004127415673853261,-11.639437675476074,-34.974265575408936,-32.061596393585205,-3.5329479413507823,-10.041276406269269,-9.629545178014924,-2.2774016857147217,-6.966549396514893,-6.259836673736572,-0.7054208965268078,-1.9971909666803662,-1.9197687476974952,-0.7083673387069436,-2.0181624817898296,-1.9297300521256917,-0.3072738730663895,-0.865096661545885,-0.8294305134598489,0.009313381746705098,0.026498549040641525,0.025398093257924286,-1.5363693653319475,-4.325483307729425,-4.147152567299244,-0.29549941053992945,-0.8316211823992904,-0.7973227624298829,-0.31906213591346255,-0.8986552277291978,-0.8615708993491947
-133.65061950683594,15.829567909240724,25.128467559814453,-2.5244431495666504,-6.855806350708008,-6.193914413452148,9.95797061920166,5.402760028839111,-4.084920406341553,0.65,-0.22611241981730723,-0.3497977302077846,0.02656629231823704,-0.7102516088720878,-2.0210774628748944,-1.929508666356373,-0.32498089932072993,-0.915497539919822,-0.8776501382354979,-0.024337990119929,0.2653804634508553,19.384364238257707,14.687690734863281,7.910671234130859,-10.179948806762695,-0.7075557307392125,-2.0130325804927596,-1.9278570193347604,0.10412472704173156,0.06939572335809295,0.13863407959991597,0.0017838007730818387,0.007172048575579775,0.0024709939033310583,-11.88401174545288,-34.83886241912842,-31.796889305114746,-3.5377786536960625,-10.065162902463799,-9.639285096673802,-2.2774016857147217,-6.855806350708008,-6.193914413452148,-0.7058557685072514,-2.0031307086244405,-1.9238053840991582,-0.7102516088720878,-2.0210774628748944,-1.9297300521256917,-0.31317017082254955,-0.8818719330499913,-0.845495988620972,0.009327720689936023,0.02655788287695876,0.025416429927763558,-1.5658508541127478,-4.409359665249957,-4.22747994310486,-0.30138154194415656,-0.8483139383044941,-0.8133544739640425,-0.32498089932072993,-0.915497539919822,-0.8776501382354979
-133.59210205078125,15.77672290802002,25.1038761138916,-2.611952304840088,-6.635639190673828,-6.134201049804688,9.468853950500488,5.427055358886719,-3.2663278579711914,0.6583333333333333,-0.2925610938189869,-0.0788012051489666,0.1300449231984766,-0.7126896179872461,-2.0217341395844692,-1.9284249586630524,-0.3309199794706236,-0.9323453244163592,-0.8937203462243566,-0.10775356165711635,0.09595330124211605,19.215403072964055,26.420059204101562,7.165603637695206,-10.5010986328125,-0.7089225006352113,-2.0167532666847654,-1.928780934247539,0.12883906781724255,0.1607326743030258,0.13808246512728536,0.002591061931649615,0.005343352377367706,0.0010077148219073855,-12.218562364578247,-34.48120307922363,-31.420243740081787,-3.5446125031760567,-10.083766333423826,-9.643904671237696,-2.2931814193725586,-6.635639190673828,-6.134201049804688,-0.7062792279205161,-2.0090176733199994,-1.927217041272176,-0.7126896179872461,-2.0217341395844692,-1.9297300521256917,-0.31907785832784297,-0.8986782102723645,-0.8615691630730348,0.009348871201749561,0.02660100574194752,0.025420251071129028,-1.595389291639215,-4.493391051361822,-4.307845815365174,-0.3072672021768275,-0.8650557522488274,-0.8294146159746439,-0.3309199794706236,-0.9323453244163592,-0.8937203462243566
-133.541748046875,15.730284690856934,25.073251724243164,-2.6527647972106934,-6.722176551818848,-6.077020168304443,8.69025707244873,5.368526458740234,-2.213223695755005,0.6666666666666666,-0.3114708400058719,-0.11624236163223411,0.2294665935154434,-0.7152852083206284,-2.0227028259314044,-1.9265127370504238,-0.3368806895399622,-0.9492011812991209,-0.9097746190331101,-0.18389346160325074,0.163173833173279,19.248990956880377,-10.384483337402344,6.8617057800294035,-4.897499084472656,-0.7107236967152338,-2.0194902972070463,-1.9286400734031885,0.12407785526931707,0.15055236221782559,0.10487651427392254,0.003321521849504693,0.003616172999167803,0.001290513952697207,-12.578145742416382,-34.15837526321411,-31.009693145751953,-3.553618483576169,-10.097451486035231,-9.643200367015943,-2.3493752479553223,-6.635639190673828,-6.077020168304443,-0.7070247096892632,-2.0137745758546344,-1.9265127370504238,-0.7152852083206284,-2.0227028259314044,-1.9297300521256917,-0.32500055580046994,-0.9155072960824231,-0.877641163684728,0.009376340499843113,0.0266292334556728,0.025411915143204646,-1.6250027790023496,-4.577536480412116,-4.38820581842364,-0.3131590747575714,-0.8818372070476159,-0.8454898155814806,-0.3368806895399622,-0.9492011812991209,-0.9097746190331101
-133.4911346435547,15.691198348999023,25.045751571655277,-2.715184450149536,-6.861394882202148,-6.083118438720703,8.608905792236328,4.530043601989746,-1.850064992904663,0.675,-0.3513648213633207,-0.20505243763777514,0.26465161022246253,-0.7182132484986561,-2.0244115962450526,-1.9243073069652366,-0.34286579994411764,-0.9660712779344963,-0.9258105132578204,-0.2535701401598562,0.22271100187684365,19.367269393556395,-16.706199645996094,-0.7317924499511719,-7.490358352661133,-0.7129614044771124,-2.0216177012851295,-1.9276967442321555,0.10839734910653206,0.13336485700467862,0.07752523372332894,0.003921231641568708,0.002303654798654737,0.0022824250821605087,-12.943954944610596,-34.05322074890137,-30.748090744018555,-3.564807022385562,-10.108088506425648,-9.638483721160778,-2.439610242843628,-6.635639190673828,-6.077020168304443,-0.7083673387069436,-2.0181624817898296,-1.9243073069652366,-0.7182132484986561,-2.0244115962450526,-1.9297300521256917,-0.3309419008377792,-0.9323541102597993,-0.8937053032199959,0.00940892416056448,0.026647841954071362,0.025393679742100817,-1.654709504188896,-4.661770551298996,-4.468526516099979,-0.31906213591346255,-0.8986552277291978,-0.8615708993491947,-0.34286579994411764,-0.9660712779344963,-0.9258105132578204
-133.4390106201172,15.661686897277832,25.017322540283203,-2.672205924987793,-6.873270034790039,-6.112006664276123,8.828060150146484,3.7844393253326416,-0.9232650399208068,0.6833333333333333,-0.2859504243978388,-0.16584952743487058,0.2768222879734372,-0.7205961687019714,-2.0257936756403434,-1.9220004545654579,-0.3488707680166341,-0.9829528918981658,-0.9418271837125325,-0.20444043694279643,0.22237513885447496,19.38329119719025,-1.425018310546875,-3.4665870666503906,5.15742301940918,-0.7154071704761179,-2.0231439400552325,-1.9261508247201085,0.07225466673713288,0.10581622796657406,0.04726628197247349,0.004146672105630435,0.0019416808352124505,0.0030496678635174765,-13.17655062675476,-33.94828701019287,-30.600260734558105,-3.5770358523805896,-10.115719700276163,-9.630754123600543,-2.5244431495666504,-6.635639190673828,-6.077020168304443,-0.7102516088720878,-2.0210774628748944,-1.9220004545654579,-0.7205961687019714,-2.0257936756403434,-1.929508666356373,-0.3369036272584135,-0.9492136430935927,-0.9097565600926634,0.009443462944341091,0.02666379898778349,0.02536847018161489,-1.6845181362920676,-4.746068215467964,-4.548782800463317,-0.32498089932072993,-0.915497539919822,-0.8776501382354979,-0.3488707680166341,-0.9829528918981658,-0.9418271837125325
-133.383056640625,15.636173248291016,24.992950439453125,-2.565415859222412,-6.876232147216797,-6.322580814361572,9.141310691833496,3.147989511489868,-0.9236876964569092,0.6916666666666667,-0.15824160803631804,-0.11822022998097204,0.10880850503030093,-0.7219148487689407,-2.026778844223518,-1.9210937170235387,-0.3548867250897086,-0.9998427156000285,-0.957836298021062,-0.01148002121584456,0.13585519515752192,19.496091409973488,-0.3554534912109375,-25.268898010253906,12.814807891845703,-0.7177398184554885,-2.0242842163249573,-1.924467834853542,0.0573169193867737,0.10934390342435073,0.10147367124278744,0.0037862708083969696,0.002092937432329849,0.0030552765691807234,-13.217523336410522,-33.96871280670166,-30.72892713546753,-3.5886990922774427,-10.121421081624787,-9.62233917426771,-2.565415859222412,-6.635639190673828,-6.077020168304443,-0.7126896179872461,-2.0217341395844692,-1.9210937170235387,-0.7219148487689407,-2.026778844223518,-1.9284249586630524,-0.34288479241220926,-0.9660826782296341,-0.9257937920497763,0.009474764544219406,0.026681165376423736,0.025343203960746116,-1.7144239620610462,-4.830413391148171,-4.628968960248882,-0.3309199794706236,-0.9323453244163592,-0.8937203462243566,-0.3548867250897086,-0.9998427156000285,-0.957836298021062
-133.322265625,15.607163429260254,24.97676086425781,-2.390554666519165,-6.828061580657959,-6.506572246551514,9.47029972076416,2.714852809906006,-1.860528588294983,0.7,0.03492087544802125,-0.020448667373099028,-0.029826367036159596,-0.7216238414735405,-2.0269492497849604,-1.9213422700821734,-0.3609002571019881,-1.0167339593482365,-0.9738474836050801,0.23370842687393048,0.054995922104630085,19.537024970782603,5.780467987060547,-22.07897186279297,20.98334312438965,-0.7195266631527474,-2.0253272383650556,-1.923051297137366,0.1287688679878042,0.06442088345728353,0.18939937531977158,0.0027821047209257294,0.0017805606885532789,0.002313886905524367,-12.9961256980896,-34.16113519668579,-31.101298332214355,-3.597633315763737,-10.126636191825279,-9.61525648568683,-2.390554666519165,-6.722176551818848,-6.077020168304443,-0.7152852083206284,-2.0227028259314044,-1.9210937170235387,-0.7219148487689407,-2.0269492497849604,-1.9265127370504238,-0.3488808479384821,-0.9829604052160097,-0.941819219525921,0.009496334326522953,0.02669547358109972,0.025325341379703905,-1.7444042396924107,-4.914802026080048,-4.709096097629605,-0.3368806895399622,-0.9492011812991209,-0.9097746190331101,-0.3609002571019881,-1.0167339593482365,-0.9738474836050801
-133.26380920410156,15.570734977722168,24.970495223999023,-2.235456943511963,-6.949371337890625,-6.608617782592773,8.855648040771484,2.520683765411377,-3.319963216781616,0.7083333333333334,0.20531650367589238,-0.09214235715053576,-0.08465947747060376,-0.7199128706095748,-2.0277171027612146,-1.9220477657277617,-0.3668995310237345,-1.0336316018712466,-0.9898645483194781,0.40238352334672634,0.1326425231933266,19.647954675427865,-14.557170867919922,-12.245464324951172,18.611726760864258,-0.7204521956105367,-2.026330093731018,-1.9221583028728335,0.20059743397084193,0.044408286441252866,0.23306316811930022,0.001486320302583347,0.001272487941731377,0.001270295800408985,-12.57881784439087,-34.38832998275757,-31.632895946502686,-3.6022609780526835,-10.131650468655089,-9.610791514364168,-2.235456943511963,-6.828061580657959,-6.083118438720703,-0.7182132484986561,-2.0244115962450526,-1.9210937170235387,-0.7219148487689407,-2.0277171027612146,-1.9243073069652366,-0.35488461623523654,-0.9998464893304349,-0.9578372053831947,0.009502163336525284,0.026705706442082096,0.02531851845740694,-1.7744230811761827,-4.999232446652174,-4.789186026915973,-0.34286579994411764,-0.9660712779344963,-0.9258105132578204,-0.3668995310237345,-1.0336316018712466,-0.9898645483194781
-133.20126342773438,15.525153160095217,24.972606658935547,-2.1310784816741943,-7.081130027770996,-6.679773807525635,9.089019775390623,2.5339269638061523,-4.764734745025635,0.7166666666666667,0.3226090409643194,-0.17275338757017344,-0.10771598830043416,-0.7172244619348721,-2.0291567143242992,-1.9229453989635987,-0.37287640153985846,-1.0505412411572823,-1.0058890933108415,0.5097984909039068,0.21341790171523517,19.759765544115094,-15.811042785644531,-8.53872299194336,12.525415420532227,-0.7202544382977799,-2.0272791173468674,-1.9218859212725061,0.22412903315452526,0.09920249444554476,0.229971485613296,0.0018739285541985427,0.001253278151978762,0.0007219675664626076,-11.994711875915527,-34.608065128326416,-32.22955131530762,-3.6012721914888997,-10.136395586734336,-9.60942960636253,-2.1310784816741943,-6.828061580657959,-6.112006664276123,-0.7172244619348721,-2.0257936756403434,-1.9210937170235387,-0.7219148487689407,-2.0291567143242992,-1.9229453989635987,-0.36088673655438475,-1.016740481974992,-0.9738529213937989,0.00949064781872546,0.026715805466316415,0.025322266070437947,-1.8044336827719236,-5.0837024098749595,-4.869264606968994,-0.3488707680166341,-0.9829528918981658,-0.9418271837125325,-0.37287640153985846,-1.0505412411572823,-1.0058890933108415
-133.14022827148438,15.476853370666504,24.98566246032715,-2.1137170791625977,-6.948006629943848,-6.624814987182617,8.54562759399414,1.8605414628982544,-5.8949503898620605,0.725,0.35168245072372795,0.010888566389951393,-0.005103811754534782,-0.7142937748455077,-2.0290659762710495,-1.9229879307282198,-0.378828849663571,-1.0674501242928744,-1.0219139927335767,0.5106117559532217,0.14631170495624327,19.62573421372858,15.974807739257812,6.595058441162109,2.0833683013916016,-0.7189939595264871,-2.0279335774730085,-1.9220834165050582,0.19054778775088518,0.09566478644972509,0.1409506550209264,0.0032216117225182307,0.0011322060294852252,0.0008790952449789094,-11.436223030090332,-34.682801723480225,-32.74235963821411,-3.594969797632436,-10.139667887365043,-9.610417082525291,-2.1137170791625977,-6.828061580657959,-6.322580814361572,-0.7142937748455077,-2.026778844223518,-1.9210937170235387,-0.7219148487689407,-2.0291567143242992,-1.9229879307282198,-0.36687835288377213,-1.0336399284539337,-0.9898702831980077,0.009464779128511552,0.026724741211053508,0.025329370028839504,-1.8343917644188605,-5.168199642269668,-4.949351415990039,-0.3548867250897086,-0.9998427156000285,-0.957836298021062,-0.378828849663571,-1.0674501242928744,-1.0219139927335767
-133.09054565429688,15.428895950317385,25.008033752441406,-2.2074692249298096,-6.917242527008057,-6.639579772949219,6.897633075714111,1.0089704990386963,-6.581334590911865,0.7333333333333333,0.2701215695225332,0.09017505076600774,0.026865411189669786,-0.7120427617661532,-2.028314517514666,-1.9227640523016392,-0.38476253934495563,-1.0843527452721633,-1.037937026502757,0.4351668607705083,0.06707043150319149,19.639105527886176,3.691692352294922,-1.7717742919921875,-11.25025749206543,-0.7170195421259297,-2.0282407121312382,-1.9224174835606784,0.11021971736632023,0.09083545822652701,0.06450683117142147,0.003931000646817975,0.0009310759796116721,0.0007101038365248458,-11.07827639579773,-34.723812103271484,-33.05935859680176,-3.585097710629648,-10.14120356065619,-9.612087417803393,-2.1137170791625977,-6.828061580657959,-6.506572246551514,-0.7120427617661532,-2.0269492497849604,-1.9213422700821734,-0.7216238414735405,-2.0291567143242992,-1.9229879307282198,-0.3728535157348215,-1.0505419343883606,-1.0058904288943467,0.009432130042443424,0.02673011569887641,0.025334355178194923,-1.8642675786741076,-5.252709671941803,-5.029452144471733,-0.3609002571019881,-1.0167339593482365,-0.9738474836050801,-0.38476253934495563,-1.0843527452721633,-1.037937026502757
-133.0490264892578,15.382704734802246,25.034568786621094,-2.28943943977356,-6.726767539978027,-6.56403398513794,5.776522636413574,0.5377196669578552,-6.776925086975098,0.7416666666666667,0.2016555143297758,0.3267080108126734,0.14805874228417082,-0.7103622991467384,-2.025591950757894,-1.921530229449271,-0.39068222517117845,-1.1012326781951458,-1.0539497784148342,0.345076019475061,-0.06503129919805056,19.477169705464288,22.856998443603516,9.065494537353409,-9.836425781250053,-0.7147672336605693,-2.027969252325825,-1.922455075434098,0.07314880933417114,0.12733313325157072,0.042381082550333606,0.0038589476812674705,0.0014532050449379836,0.0006405193056620642,-10.977161169052126,-34.62251806259155,-33.116820335388184,-3.5738361683028463,-10.139846261629124,-9.61227537717049,-2.1137170791625977,-6.726767539978027,-6.56403398513794,-0.7103622991467384,-2.025591950757894,-1.921530229449271,-0.7199128706095748,-2.0291567143242992,-1.9229879307282198,-0.3788099093486596,-1.0674416781577425,-1.0219108878562975,0.0094001286209025,0.026723407226245437,0.025332752593941694,-1.894049546743298,-5.337208390788712,-5.109554439281488,-0.3668995310237345,-1.0336316018712466,-0.9898645483194781,-0.39068222517117845,-1.1012326781951458,-1.0539497784148342
-133.03382873535156,15.34848403930664,25.06086158752441,-2.466386079788208,-6.393848419189453,-6.45765495300293,2.637459754943848,-0.4573422074317932,-5.690023422241211,0.75,0.040216362262337935,0.7006912629993636,0.2979848544544996,-0.7100271627945522,-2.019752856899566,-1.919047022328817,-0.3965991181944664,-1.1180639520026423,-1.069941836934241,0.17389056711568646,-0.3126512627391376,19.21944613953253,39.950294494628906,12.765483856201278,-21.23359680175776,-0.7127900920975647,-2.0263764031534945,-1.921854926754309,0.14365875303582157,0.2665099881317254,0.08641285643686719,0.0030004648485745977,0.003975139984305674,0.0016799622396042751,-11.20809030532837,-34.06699514389038,-32.96585750579834,-3.5639504604878236,-10.131882015767474,-9.609274633771545,-2.1137170791625977,-6.393848419189453,-6.45765495300293,-0.7100271627945522,-2.019752856899566,-1.919047022328817,-0.7172244619348721,-2.0291567143242992,-1.9229879307282198,-0.384749826782806,-1.0843281481840215,-1.03792634557925,0.009375972166294981,0.026694058215763462,0.025320560702638138,-1.92374913391403,-5.4216407409201075,-5.18963172789625,-0.37287640153985846,-1.0505412411572823,-1.0058890933108415,-0.3965991181944664,-1.1180639520026423,-1.069941836934241
-133.04544067382812,15.32982349395752,25.08098030090332,-2.661348819732666,-6.37506628036499,-6.379264831542969,-0.3927174508571625,-1.1824555397033691,-3.856350898742676,0.7583333333333333,-0.13629962392007045,0.7570332255988115,0.41781420991187446,-0.7111629929938862,-2.0134442466862423,-1.915565237246218,-0.40252547646941544,-1.134842654058361,-1.0859048805779596,-0.034783895747718924,-0.35917780851558034,19.20622524170034,2.253856658935547,9.406814575195312,-23.39552879333496,-0.7115777983093675,-2.023233909625884,-1.9203788944108329,0.21809913695921768,0.27607100650254374,0.111874597138591,0.0017063624852875548,0.006582954587625025,0.003113149513756676,-11.73836064338684,-33.360931396484375,-32.665348529815674,-3.5578889915468377,-10.116169548129418,-9.601894472054164,-2.1137170791625977,-6.37506628036499,-6.379264831542969,-0.7100271627945522,-2.0134442466862423,-1.915565237246218,-0.7142937748455077,-2.0290659762710495,-1.9229879307282198,-0.3906796417687174,-1.1011884307642374,-1.0539295030326739,0.009365059826264533,0.026641628844619472,0.025296107519247643,-1.953398208843587,-5.505942153821187,-5.269647515163369,-0.378828849663571,-1.0674501242928744,-1.0219139927335767,-0.40252547646941544,-1.134842654058361,-1.0859048805779596
-133.07302856445312,15.332207679748535,25.093292236328125,-2.821208000183105,-6.529540538787842,-6.326118469238281,-2.05017638206482,-2.270740270614624,-1.37677800655365,0.7666666666666666,-0.27494220762975097,0.6407548713575002,0.510757777324061,-0.7134541780574675,-2.008104622758263,-1.911308922435184,-0.40847092795322765,-1.1515768592480131,-1.101832454931586,-0.2186510485797801,-0.2811744637582795,19.32246664933412,-18.536911010742188,6.3775634765625,-19.18310165405268,-0.7114098789517594,-2.0190416389233263,-1.9180430927522258,0.25478496321082766,0.23135955247740717,0.12906529135400732,0.0013829298233916803,0.00837179514743484,0.004662195667598113,-12.445851564407349,-32.94246530532837,-32.36665201187134,-3.5570493947587973,-10.095208194616632,-9.59021546376113,-2.2074692249298096,-6.37506628036499,-6.326118469238281,-0.7100271627945522,-2.008104622758263,-1.911308922435184,-0.7134541780574675,-2.028314517514666,-1.9227640523016392,-0.39660805742664873,-1.1180137777552652,-1.0699131954722756,0.009369837401361053,0.026572374962752412,0.02525806803479024,-1.9830402871332438,-5.590068888776326,-5.349565977361378,-0.38476253934495563,-1.0843527452721633,-1.037937026502757,-0.40847092795322765,-1.1515768592480131,-1.101832454931586
-133.10409545898438,15.35483741760254,25.100696563720703,-2.8795082569122314,-6.789516925811768,-6.360423564910889,-2.321469783782959,-3.4908363819122314,0.7673128247261047,0.775,-0.31043285584013125,0.42195581994983566,0.5155714314543385,-0.716041118522802,-2.0045883242586813,-1.9070124938397313,-0.414437937274251,-1.1682817619501689,-1.1177242257135838,-0.2817918870589091,-0.1368391511690756,19.543753859209662,-31.197166442871094,-4.116611480712891,-6.9960308074951705,-0.7122095503030892,-2.014296400272129,-1.9148927810598444,0.2461414356669808,0.18919605379740856,0.095072157808328,0.0025248983911562457,0.008524573216647324,0.005846122823659617,-13.11789059638977,-32.81473970413208,-32.08749580383301,-3.561047751515446,-10.071482001360646,-9.574463905299222,-2.28943943977356,-6.37506628036499,-6.326118469238281,-0.7100271627945522,-2.0045883242586813,-1.9070124938397313,-0.716041118522802,-2.025591950757894,-1.921530229449271,-0.4025431370125078,-1.1347995810908664,-1.085870635314441,0.009389327452160664,0.026501667889624228,0.025209620200366222,-2.012715685062539,-5.673997905454332,-5.429353176572205,-0.39068222517117845,-1.1012326781951458,-1.0539497784148342,-0.414437937274251,-1.1682817619501689,-1.1177242257135838
-133.13555908203125,15.389464378356934,25.11534881591797,-2.793496608734131,-7.021755695343018,-6.472517490386963,-2.593876600265503,-5.11316442489624,1.2634350061416626,0.7833333333333333,-0.2021068403690407,0.23450567070916595,0.44331654757712435,-0.7177253421925439,-2.0026341103361047,-1.9033181892765885,-0.4204189817925222,-1.1849703795363031,-1.133585210624222,-0.1770498655179834,0.0028412745700266005,19.75840712293859,-27.86865234375,-13.451271057128906,10.32139778137207,-0.7136821589122503,-2.0097048321877713,-1.9112503730253079,0.1648873368476406,0.2781387600044675,0.06331344414834277,0.003227583860138852,0.006958456231681787,0.0063302523775461104,-13.621947765350342,-33.10972785949707,-31.99597930908203,-3.5684107945612515,-10.048524160938857,-9.556251865126539,-2.466386079788208,-6.37506628036499,-6.326118469238281,-0.7100271627945522,-2.0026341103361047,-1.9033181892765885,-0.7177253421925439,-2.019752856899566,-1.919047022328817,-0.40849048833677654,-1.1515471213590978,-1.1017977217563186,0.009416043994634514,0.026444872495389116,0.025156902540551692,-2.0424524416838827,-5.757735606795489,-5.508988608781593,-0.3965991181944664,-1.1180639520026423,-1.069941836934241,-0.4204189817925222,-1.1849703795363031,-1.133585210624222
-133.16685485839844,15.42898941040039,25.143035888671875,-2.683776378631592,-7.300349712371826,-6.675463199615479,-2.994073867797852,-6.5890069007873535,0.6366291046142578,0.7916666666666666,-0.07198134259963584,0.004437024532057521,0.2823457865021366,-0.7183251867142075,-2.002597135131671,-1.900965307722404,-0.4264050250151406,-1.2016586889957337,-1.1494265881885752,-0.01303372133858623,0.13252710142783042,20.058992008599873,-33.43128204345703,-24.35348510742198,13.166427612304688,-0.7153417636961814,-2.0062736878341925,-1.907634030104025,0.09271362456113519,0.37192056513950306,0.14093656283364425,0.003004016505116326,0.004592745678511242,0.00591382972267698,-13.839338064193726,-34.01622915267944,-32.21378755569458,-3.576708818480907,-10.031368439170963,-9.538170150520125,-2.661348819732666,-6.37506628036499,-6.326118469238281,-0.7111629929938862,-2.002597135131671,-1.900965307722404,-0.7183251867142075,-2.0134442466862423,-1.915565237246218,-0.4144516697009114,-1.1682660687577158,-1.1176946720071854,0.009440538415446165,0.026409068969999786,0.02510789400353451,-2.072258348504557,-5.841330343788579,-5.588473360035927,-0.40252547646941544,-1.134842654058361,-1.0859048805779596,-0.4264050250151406,-1.2016586889957337,-1.1494265881885752
