Euler_X,Euler_Y,Euler_Z,Acc_X,Acc_Y,Acc_Z,Gyr_X,Gyr_Y,Gyr_Z,time_seconds,filtered_accel_x,filtered_accel_y,filtered_accel_z,Vel_X,Vel_Y,Vel_Z,Displacement_X,Displacement_Y,Displacement_Z,Acc_Global_X,Acc_Global_Y,Acc_Global_Z,Dy_dt,Dz_dt,Dx_dt,Vel_X_Roll_Mean,Vel_Y_Roll_Mean,Vel_Z_Roll_Mean,Acc_Global_X_Roll_Std,Acc_Global_Y_Roll_Std,Acc_Global_Z_Roll_Std,Vel_X_Roll_Std,Vel_Y_Roll_Std,Vel_Z_Roll_Std,Acc_Global_X_Roll_Sum,Acc_Global_Y_Roll_Sum,Acc_Global_Z_Roll_Sum,Vel_X_Roll_Sum,Vel_Y_Roll_Sum,Vel_Z_Roll_Sum,Acc_Global_X_Roll_Max,Acc_Global_Y_Roll_Max,Acc_Global_Z_Roll_Max,Vel_X_Roll_Max,Vel_Y_Roll_Max,Vel_Z_Roll_Max,Vel_X_Roll_Min,Vel_Y_Roll_Min,Vel_Z_Roll_Min,Displacement_X_Roll_Mean,Displacement_Y_Roll_Mean,Displacement_Z_Roll_Mean,Displacement_X_Roll_Std,Displacement_Y_Roll_Std,Displacement_Z_Roll_Std,Displacement_X_Roll_Sum,Displacement_Y_Roll_Sum,Displacement_Z_Roll_Sum,Displacement_X_Roll_Max,Displacement_Y_Roll_Max,Displacement_Z_Roll_Max,Displacement_X_Roll_Min,Displacement_Y_Roll_Min,Displacement_Z_Roll_Min
-134.30722045898438,17.05529022216797,22.320423126220703,-2.989107847213745,-7.13097620010376,-7.118953227996826,6.385142803192139,-2.1291449069976807,5.650423526763916,0.0,-2.9638910408292185,-7.070817632610686,-7.058896089082206,0.0,0.0,0.0,0.0,0.0,0.0,0.13319924036218758,-0.06782523539077465,20.319174089857803,,,,,,,,,,,,,,,,,,,,,,,,,,,,,,,,,,,,,,,,,,
-134.29165649414062,17.102214813232422,22.283626556396484,-3.0294265747070312,-7.314301013946533,-7.165230751037598,4.814604759216309,-1.9466689825057983,6.359809398651123,0.008333333333333333,-2.9536494406602722,-7.132787894788832,-6.98517722187077,-0.0246137453388356,-0.05943989912324026,-0.05820981018225641,-0.00020511454449029668,-0.0004953324926936689,-0.0004850817515188034,0.1150100668762784,0.024246667177994514,20.487225350877594,-21.998977661132812,-5.553302764892578,-4.838247299194336,,,,,,,,,,,,,,,,,,,,,,,,,,,,,,,,,,,,,,,
-134.28067016601562,17.140451431274414,22.252704620361328,-3.1158339977264404,-8.007987976074219,-6.818386554718018,4.107089042663574,-1.6133509874343872,5.036219596862793,0.016666666666666666,-2.988856052178842,-7.698750361068011,-6.521889518150704,-0.04952087910699261,-0.12359615213214034,-0.11255888950017895,-0.0006177885370485685,-0.0015253004271281716,-0.001423072497353628,-0.16208969656654604,0.7002629524428712,20.755777581496872,-83.24243545532227,41.62130355834961,-10.368890762329102,,,,,,,,,,,,,,,,,,,,,,,,,,,,,,,,,,,,,,,
-134.22276306152344,17.185773849487305,22.227367401123047,-3.0403056144714355,-7.28269100189209,-7.616863250732422,9.495759963989258,-2.749009132385254,5.304553985595703,0.025,-2.862470487668739,-6.8470815159034215,-7.201103068986172,-0.07337479983756544,-0.18065516476466886,-0.17256808174173038,-0.001229245202361614,-0.003030760133500412,-0.002861139845201381,0.33520703857999884,-0.27264518921022,20.769514272123175,87.03563690185547,-95.81720352172852,9.063405990600586,,,,,,,,,,,,,,,,,,,,,,,,,,,,,,,,,,,,,,,
-134.2386932373047,17.209041595458984,22.190406799316406,-2.6027262210845947,-7.098904609680176,-7.365008354187012,1.0903468132019043,0.1389572322368621,4.231446266174316,0.03333333333333333,-2.3787965068562107,-6.545670484841582,-6.826391080588432,-0.09319810406136719,-0.23520241880501538,-0.2294546740799673,-0.002005896069539674,-0.004990780290208874,-0.0047732621292011085,0.6211779175449464,-0.09658300214211983,20.346450456152493,22.054367065429688,30.22258758544922,52.5095272064209,-0.048141505668952166,-0.11977872696501297,-0.1145582911008266,0.20244934305618723,0.3702476010447982,0.2970618341993552,0.03721518150769213,0.09358266349962482,0.0906491389926343,-14.777400255203247,-36.83486080169678,-36.084442138671875,-0.24070752834476083,-0.5988936348250649,-0.572791455504133,-2.6027262210845947,-7.098904609680176,-6.818386554718018,0.0,0.0,0.0,-0.09319810406136719,-0.23520241880501538,-0.2294546740799673,-0.0008116088706880307,-0.002008434668706225,-0.001908511244654984,0.0008162188228802875,0.002030778266512797,0.001937686529819306,-0.004058044353440153,-0.010042173343531125,-0.00954255622327492,0.0,0.0,0.0,-0.002005896069539674,-0.004990780290208874,-0.0047732621292011085
-134.2550506591797,17.218660354614258,22.14162826538086,-2.924547910690308,-7.867275714874268,-7.510348796844482,1.4208984375,2.1655044555664062,4.111161231994629,0.041666666666666664,-2.6558951455154634,-7.192492670530997,-6.850824166601325,-0.11533056360732939,-0.295139857726107,-0.2865448754683117,-0.0029669840996007523,-0.007450279104593099,-0.007161136091437039,0.3527748661413986,0.2633736075495707,21.0642672325968,-92.20453262329102,-17.440853118896484,-38.618602752685604,-0.07120761839041805,-0.1788066985102344,-0.17186726619448894,0.2018262356372054,0.3982823441543078,0.31578177590680867,0.03562448630078015,0.09221433627081678,0.09069627281681152,-14.71284031867981,-37.571160316467285,-36.47583770751953,-0.35603809195209024,-0.8940334925511719,-0.8593363309724448,-2.6027262210845947,-7.098904609680176,-6.818386554718018,-0.0246137453388356,-0.05943989912324026,-0.05820981018225641,-0.11533056360732939,-0.295139857726107,-0.2865448754683117,-0.0014050056906081813,-0.003498490489624845,-0.003340738462942392,0.0011058014238857104,0.0027827491249494364,0.002679076097156163,-0.007025028453040906,-0.017492452448124224,-0.01670369231471196,-0.00020511454449029668,-0.0004953324926936689,-0.0004850817515188034,-0.0029669840996007523,-0.007450279104593099,-0.007161136091437039
-134.26100158691406,17.21792984008789,22.093486785888672,-2.7493338584899902,-7.745294094085693,-7.500622749328613,2.690006971359253,3.0619513988494877,3.065460205078125,0.05,-2.435105854221637,-6.944552874250535,-6.720084694553662,-0.1356231123925097,-0.3530111316781948,-0.3425455812562589,-0.004097176702871666,-0.010392038535244723,-0.010015682601905863,0.5110866931147953,0.24410565798830636,20.922468749873865,14.637794494628906,1.1671257019042969,21.02568626403814,-0.09340949180115288,-0.2375209450212253,-0.22873442040928946,0.2103806008044123,0.3907625664055808,0.3169003133406118,0.03387538576766672,0.09065852590652677,0.09075648653698085,-14.432747602462769,-38.002153396606445,-36.81122970581055,-0.4670474590057644,-1.1876047251061266,-1.1436721020464473,-2.6027262210845947,-7.098904609680176,-6.818386554718018,-0.04952087910699261,-0.12359615213214034,-0.11255888950017895,-0.1356231123925097,-0.3530111316781948,-0.3425455812562589,-0.002183418122284455,-0.005477831698135056,-0.005246858633019804,0.001384702457576132,0.003531566910516919,0.0034257637261024916,-0.010917090611422275,-0.02738915849067528,-0.02623429316509902,-0.0006177885370485685,-0.0015253004271281716,-0.001423072497353628,-0.004097176702871666,-0.010392038535244723,-0.010015682601905863
-134.27467346191406,17.19659423828125,22.0455322265625,-2.5985281467437744,-7.882265567779541,-7.604710102081299,1.7122092247009275,4.689274787902832,1.386267900466919,0.058333333333333334,-2.241868342743286,-6.95652418567324,-6.703404773463993,-0.1543053485820371,-0.41098216655880515,-0.3984072877017922,-0.005383054607721975,-0.013816889923234765,-0.013335743332754132,0.6788885817583546,0.33707915556637125,21.041187055853033,-16.43657684326172,-12.490482330322266,18.0966854095459,-0.11436638569616175,-0.2949981479065582,-0.28590410004961214,0.19615291249611813,0.36088372872773755,0.10130168712911357,0.03231216908480303,0.0914708504976549,0.08929897249760031,-13.915441751480103,-37.87643098831177,-37.59755325317383,-0.5718319284808088,-1.474990739532791,-1.4295205002480607,-2.5985281467437744,-7.098904609680176,-7.365008354187012,-0.07337479983756544,-0.18065516476466886,-0.17256808174173038,-0.1543053485820371,-0.41098216655880515,-0.3984072877017922,-0.0031364713364191365,-0.007936149597356373,-0.007629392800099904,0.001651857218404814,0.004289190294769757,0.00416442668371294,-0.015682356682095683,-0.03968074798678187,-0.03814696400049952,-0.001229245202361614,-0.003030760133500412,-0.002861139845201381,-0.005383054607721975,-0.013816889923234765,-0.013335743332754132
-134.27943420410156,17.154674530029297,22.0058536529541,-2.5557188987731934,-8.044583320617676,-7.615048408508301,2.527728080749512,5.815110206604004,-1.1458783149719238,0.06666666666666667,-2.1586283761090295,-6.992396703826053,-6.593053908853084,-0.17229391838294567,-0.4692521390906889,-0.4533494036089012,-0.006818837260913189,-0.01772732441565717,-0.017113655029494974,0.7031495547102403,0.4615462864396374,21.147042731021877,-19.478130340576172,-1.2405967712402344,5.137109756469727,-0.1341502094052378,-0.35271754277176226,-0.34206036442304627,0.15204863515706357,0.3672465529455093,0.10086798670054796,0.031203347629206173,0.09233114167880101,0.08849077982026089,-13.43085503578186,-38.63832330703735,-37.59573841094971,-0.670751047026189,-1.7635877138588112,-1.7103018221152313,-2.5557188987731934,-7.098904609680176,-7.365008354187012,-0.09319810406136719,-0.23520241880501538,-0.2294546740799673,-0.17229391838294567,-0.4692521390906889,-0.4533494036089012,-0.0042543897481294515,-0.010875462453787727,-0.010479895836958623,0.0019097204297503028,0.005054578907522705,0.004897906552661274,-0.021271948740647258,-0.05437731226893863,-0.05239947918479312,-0.002005896069539674,-0.004990780290208874,-0.0047732621292011085,-0.006818837260913189,-0.01772732441565717,-0.017113655029494974
-134.26551818847656,17.087318420410156,21.97340202331543,-2.574237823486328,-8.074328422546387,-7.73439359664917,4.469454288482666,7.272395133972168,-3.809465169906616,0.075,-2.1372734231626627,-6.895171727149403,-6.591661945129924,-0.19010453024263452,-0.5267119034836006,-0.5082799198183172,-0.00840304167960181,-0.022116590278020508,-0.021349321027980952,0.7283653238396596,0.3985445074891025,21.253468459583136,-3.5694122314453125,-14.321422576904297,-2.222270965576172,-0.15353149464149127,-0.41101943970747923,-0.39782541357071627,0.15642796851658836,0.1360389285269222,0.09484221468907847,0.029454352879965447,0.09160900087045193,0.08763941467562064,-13.402366638183594,-39.613747119903564,-37.965123653411865,-0.7676574732074564,-2.0550971985373963,-1.9891270678535813,-2.5557188987731934,-7.745294094085693,-7.500622749328613,-0.11533056360732939,-0.295139857726107,-0.2865448754683117,-0.19010453024263452,-0.5267119034836006,-0.5082799198183172,-0.00553381887014188,-0.014300624451350052,-0.013795107616714592,0.0021540092336040724,0.0058152787718252445,0.005625467633449724,-0.027669094350709397,-0.07150312225675026,-0.06897553808357296,-0.0029669840996007523,-0.007450279104593099,-0.007161136091437039,-0.00840304167960181,-0.022116590278020508,-0.021349321027980952
-134.23428344726562,16.996601104736328,21.93628692626953,-2.551255226135254,-7.909489631652832,-7.689839839935303,6.744818687438965,9.6885347366333,-5.541013240814209,0.08333333333333333,-2.074802917390027,-6.6056058749377815,-6.426789837637509,-0.20739455455421807,-0.5817586191080821,-0.5618365017986298,-0.010131329634220294,-0.02696457877058786,-0.02603129187630287,0.7250740499508113,0.3005207126113609,21.10542036178122,19.780654907226562,5.3464508056640625,2.7579116821289062,-0.171944292830869,-0.46834319198387436,-0.45288373883677985,0.08236241152871654,0.13301169782730263,0.08954695860586265,0.02835929309671505,0.09064017203883161,0.0867206016678953,-13.02907395362854,-39.65596103668213,-38.144614696502686,-0.859721464154345,-2.3417159599193718,-2.2644186941838993,-2.551255226135254,-7.745294094085693,-7.500622749328613,-0.1356231123925097,-0.3530111316781948,-0.3425455812562589,-0.20739455455421807,-0.5817586191080821,-0.5618365017986298,-0.006966687977065787,-0.018203484384549003,-0.017569138773687758,0.0023896609703302992,0.006568043812948111,0.006345896618038763,-0.034833439885328936,-0.09101742192274502,-0.0878456938684388,-0.004097176702871666,-0.010392038535244723,-0.010015682601905863,-0.010131329634220294,-0.02696457877058786,-0.02603129187630287
-134.1871337890625,16.888517379760742,21.900917053222656,-2.509631872177124,-7.550689697265625,-7.58291482925415,8.54362964630127,10.919912338256836,-7.084270477294922,0.09166666666666666,-1.9945828197744868,-6.12758423344952,-6.2018738952585295,-0.2240160780523388,-0.6328218210534948,-0.6135187842591175,-0.01199813028465645,-0.03223809394603365,-0.031143948411795516,0.7210743617192749,0.1017052574863676,20.77729101243483,43.055992126464844,12.831001281738281,4.994802474975586,-0.18962288596283483,-0.5243053298589343,-0.5070783794373516,0.03277304491282001,0.20821762920275497,0.06398445385747,0.02759790486553572,0.08797086741849361,0.0851846002294635,-12.789371967315674,-39.46135663986206,-38.22690677642822,-0.9481144298141742,-2.6215266492946716,-2.535391897186758,-2.509631872177124,-7.550689697265625,-7.58291482925415,-0.1543053485820371,-0.41098216655880515,-0.3984072877017922,-0.2240160780523388,-0.6328218210534948,-0.6135187842591175,-0.008546878693422744,-0.02257269546670679,-0.021794791935665685,0.0026190752878669944,0.007298259210244503,0.007053751641724177,-0.04273439346711372,-0.11286347733353395,-0.10897395967832843,-0.005383054607721975,-0.013816889923234765,-0.013335743332754132,-0.01199813028465645,-0.03223809394603365,-0.031143948411795516
-134.1461944580078,16.769620895385742,21.87423515319824,-2.492335319519043,-7.326470851898193,-7.274092674255371,7.534672260284424,11.177657127380373,-8.808633804321289,0.1,-1.9395262543755725,-5.790106787645893,-5.779601241879168,-0.24017879683880192,-0.6810727109505439,-0.661682127941444,-0.013999620258313132,-0.037913699870621514,-0.03665796614464088,0.5931342781757943,0.11225729634028002,20.413627905097524,26.906261444091797,37.058658599853516,2.0755863189697266,-0.20679757561418777,-0.578323438737282,-0.559733347485282,0.03421823029570849,0.3285067863422739,0.18077306108025096,0.02683420981984503,0.08381465572538271,0.08254672773176652,-12.683179140090942,-38.90556192398071,-37.896289348602295,-1.0339878780709388,-2.89161719368641,-2.79866673742641,-2.492335319519043,-7.326470851898193,-7.274092674255371,-0.17229391838294567,-0.4692521390906889,-0.4533494036089012,-0.24017879683880192,-0.6810727109505439,-0.661682127941444,-0.010270191823540975,-0.027392057456184137,-0.026459236498043038,0.0028421729565640363,0.007993894318125161,0.0077394263000395164,-0.051350959117704875,-0.1369602872809207,-0.1322961824902152,-0.006818837260913189,-0.01772732441565717,-0.017113655029494974,-0.013999620258313132,-0.037913699870621514,-0.03665796614464088
-134.096435546875,16.64469337463379,21.87676048278809,-2.5765650272369385,-7.696982383728027,-7.174790859222412,7.535300254821777,9.1941556930542,-11.58346462249756,0.10833333333333334,-1.9857649258782217,-6.047122968915386,-5.571289841761973,-0.2567268378877871,-0.7314654023581721,-0.7081095432894604,-0.016139010574044692,-0.04400924489027295,-0.04255887900538639,0.42981565767117474,0.3917318737856194,20.627654721244465,-44.46138381958008,11.916217803955078,-10.107564926147461,-0.2236841595151561,-0.6307660913907787,-0.6106853754213939,0.038166786230652415,0.2937526491299475,0.2521224188877084,0.026253307202400628,0.08047412563340817,0.07901464302505105,-12.704025268554688,-38.557960987091064,-37.456031799316406,-1.1184207975757805,-3.1538304569538935,-3.0534268771069693,-2.492335319519043,-7.326470851898193,-7.174790859222412,-0.19010453024263452,-0.5267119034836006,-0.5082799198183172,-0.2567268378877871,-0.7314654023581721,-0.7081095432894604,-0.012134226486167276,-0.03264844155110729,-0.03154828129322133,0.0030606309624008274,0.008662929212823956,0.008395855957811947,-0.06067113243083638,-0.16324220775553647,-0.15774140646610663,-0.00840304167960181,-0.022116590278020508,-0.021349321027980952,-0.016139010574044692,-0.04400924489027295,-0.04255887900538639
-134.01409912109375,16.516489028930664,21.90359687805176,-2.658442497253418,-7.318274021148682,-7.149231433868408,10.65284824371338,7.513259410858154,-13.90850830078125,0.11666666666666667,-2.028586666371198,-5.555990908274559,-5.438737583616459,-0.27363172677421377,-0.7777653265937935,-0.7534323564862643,-0.018419274963829807,-0.05049062261188789,-0.048837481976105254,0.3548372913100158,0.08176405939630009,20.374249447552895,45.445003509521484,3.0671310424804688,-9.825296401977539,-0.24038959882147193,-0.6809767760128174,-0.6597158627549832,0.06543994746371833,0.2519724402948826,0.24677252832656826,0.02611873856634148,0.07758910436399234,0.07556972785864641,-12.788229942321777,-37.80190658569336,-36.870869636535645,-1.2019479941073596,-3.404883880064087,-3.298579313774916,-2.492335319519043,-7.318274021148682,-7.149231433868408,-0.20739455455421807,-0.5817586191080821,-0.5618365017986298,-0.27363172677421377,-0.7777653265937935,-0.7534323564862643,-0.014137473143012873,-0.03832324801788077,-0.03704591348284618,0.003278145665503374,0.00930848754868618,0.009024126832502836,-0.07068736571506437,-0.19161624008940387,-0.1852295674142309,-0.010131329634220294,-0.02696457877058786,-0.02603129187630287,-0.018419274963829807,-0.05049062261188789,-0.048837481976105254
-133.9397735595703,16.382076263427734,21.93764305114746,-2.6450955867767334,-6.724730491638184,-7.029181957244873,9.413529396057127,7.3452301025390625,-14.948036193847656,0.125,-1.9759525591841616,-4.859222350708589,-5.2138729629474625,-0.29009799810074843,-0.8182588461830317,-0.7968812978441598,-0.020836758281336045,-0.057309446330079825,-0.05547815945813992,0.33658101346691977,-0.2904852311227657,19.88125917590666,71.22522354125977,14.405937194824219,1.6016292572021484,-0.256930287530778,-0.7282768214278071,-0.7067248219640893,0.07578742415632267,0.37069707498161925,0.20956350252763833,0.026186991594142135,0.0739863654894812,0.07250501901055126,-12.882070302963257,-36.61714744567871,-36.210211753845215,-1.28465143765389,-3.641384107139036,-3.533624109820446,-2.492335319519043,-6.724730491638184,-7.029181957244873,-0.2240160780523388,-0.6328218210534948,-0.6135187842591175,-0.29009799810074843,-0.8182588461830317,-0.7968812978441598,-0.016278558872436025,-0.04439222152977916,-0.04293528699921359,0.00349624623935635,0.009923279745330091,0.0096273264829643,-0.08139279436218012,-0.22196110764889582,-0.21467643499606795,-0.01199813028465645,-0.03223809394603365,-0.031143948411795516,-0.020836758281336045,-0.057309446330079825,-0.05547815945813992
-133.88876342773438,16.25522232055664,21.96852302551269,-2.6820974349975586,-6.688394069671631,-6.829703330993652,6.774967193603516,7.027011394500732,-14.136334419250488,0.13333333333333333,-1.9738173486973625,-4.725896454376638,-4.913208590903054,-0.30654647600655976,-0.8576413166361704,-0.837824702768352,-0.023391312248057378,-0.06445645730204791,-0.06246003198120952,0.19920551855328464,-0.22725868172951807,19.733798674115743,4.360370635986328,23.937435150146484,-4.440221786499023,-0.2734363671216222,-0.7732407205443423,-0.751586005665936,0.07703112277717425,0.4337560712834148,0.17031687730887907,0.02626405229103075,0.06966111454501935,0.06975868296036464,-13.054535865783691,-35.75485181808472,-35.45700025558472,-1.3671818356081111,-3.8662036027217117,-3.7579300283296804,-2.492335319519043,-6.688394069671631,-6.829703330993652,-0.24017879683880192,-0.6810727109505439,-0.661682127941444,-0.30654647600655976,-0.8576413166361704,-0.837824702768352,-0.018557195265116212,-0.05083589420098202,-0.04919850371309639,0.0037149435965419825,0.010501572215048403,0.010207622687750066,-0.09278597632558105,-0.2541794710049101,-0.24599251856548196,-0.013999620258313132,-0.037913699870621514,-0.03665796614464088,-0.023391312248057378,-0.06445645730204791,-0.06246003198120952
-133.85028076171875,16.13924217224121,21.990951538085938,-2.787529230117798,-6.810589790344238,-6.851176261901856,5.515577793121338,6.747853755950928,-12.444012641906738,0.14166666666666666,-2.0392599789139876,-4.751250151799674,-4.8359033988200295,-0.3235403091641763,-0.8972350679011677,-0.8781238977585188,-0.02608748149109218,-0.0719334162012243,-0.06977773112919718,0.08975928381213398,-0.20374029960513057,19.862039685259713,-14.66348648071289,-2.5767517089844816,-12.651815414428711,-0.2901086695866971,-0.8164731919344671,-0.794874359629351,0.0765561118794704,0.4428343868878586,0.16170232742067484,0.026333023234316355,0.06508668602350624,0.06712826966800739,-13.349729776382446,-35.23897075653076,-35.0340838432312,-1.4505433479334855,-4.082365959672336,-3.9743717981467555,-2.5765650272369385,-6.688394069671631,-6.829703330993652,-0.2567268378877871,-0.7314654023581721,-0.7081095432894604,-0.3235403091641763,-0.8972350679011677,-0.8781238977585188,-0.020974767511672023,-0.05763983746710257,-0.05582245671000765,0.0039342618929049415,0.011042941007128448,0.010766127388169589,-0.1048738375583601,-0.28819918733551286,-0.27911228355003825,-0.016139010574044692,-0.04400924489027295,-0.04255887900538639,-0.02608748149109218,-0.0719334162012243,-0.06977773112919718
-133.82240295410156,16.029985427856445,22.00357818603516,-2.723284721374512,-5.953912258148193,-6.6595001220703125,4.622230052947998,7.058708190917969,-11.16865348815918,0.15,-1.935036615543499,-3.8048000308955974,-4.547773316597027,-0.33966561429370545,-0.9289417348252976,-0.9160220087301607,-0.028918028276873058,-0.07967459732476845,-0.07741124786861518,0.10921993255605099,-0.6915730425194924,19.122577004269363,102.80130386352539,23.001136779785263,7.709341049194283,-0.3066964248678808,-0.8559684584278922,-0.836456852717491,0.057582648389456606,0.48782238554811236,0.1896702532673202,0.02617006116449264,0.06035017660391621,0.06428047764585064,-13.49644947052002,-33.49590063095093,-34.5187931060791,-1.533482124339404,-4.2798422921394605,-4.182284263587455,-2.6450955867767334,-5.953912258148193,-6.6595001220703125,-0.27363172677421377,-0.7777653265937935,-0.7534323564862643,-0.33966561429370545,-0.9289417348252976,-0.9160220087301607,-0.023530571052237693,-0.06477290795400167,-0.06279293048265341,0.004152223931286311,0.011544698994363188,0.011301038479282705,-0.11765285526118847,-0.3238645397700084,-0.31396465241326704,-0.018419274963829807,-0.05049062261188789,-0.048837481976105254,-0.028918028276873058,-0.07967459732476845,-0.07741124786861518
-133.8406524658203,15.934657096862791,21.991268157958984,-2.8389694690704346,-6.038913249969482,-6.576528549194336,-0.1362165212631225,7.912532806396484,-7.887622833251953,0.15833333333333333,-2.010667325351448,-3.8073544587196837,-4.371536121366958,-0.35642117533830087,-0.9606696886479617,-0.9524514764082187,-0.03188820473802557,-0.08768017806350147,-0.08534834350535034,-0.052928360297371815,-0.6259232385406223,19.157960597556578,-10.200119018554688,9.956588745117188,-13.882169723510689,-0.32325431458069814,-0.8925493308387258,-0.876260676701882,0.07840108721316343,0.411462337237663,0.17686443916087963,0.026210429203011115,0.05640122319981541,0.06157897968730387,-13.676976442337036,-32.21653985977173,-33.94609022140503,-1.6162715729034907,-4.462746654193629,-4.38130338350941,-2.6450955867767334,-5.953912258148193,-6.576528549194336,-0.29009799810074843,-0.8182588461830317,-0.7968812978441598,-0.35642117533830087,-0.9606696886479617,-0.9524514764082187,-0.026224357007076843,-0.07221081904432439,-0.07009510278850244,0.004370530104351928,0.012013191102077101,0.011813523971754789,-0.13112178503538421,-0.3610540952216219,-0.3504755139425122,-0.020836758281336045,-0.057309446330079825,-0.05547815945813992,-0.03188820473802557,-0.08768017806350147,-0.08534834350535034
-133.86488342285156,15.850600242614746,21.97492027282715,-2.863121509552002,-6.145201683044434,-6.4048943519592285,-0.6701323986053467,7.377668380737305,-6.6703691482543945,0.16666666666666666,-1.9939461367732862,-3.8303389901723053,-4.10963118713832,-0.37303739314474493,-0.9925891802327309,-0.9866984029677047,-0.034996849680898445,-0.09595175456544089,-0.09357083019674788,-0.17330196809261436,-0.4574823079540446,19.123662895406667,-12.75461196899414,20.59610366821289,-2.898244857788086,-0.33984219358949747,-0.9274153976486657,-0.914224097726591,0.07622304889524692,0.3936060901347764,0.18526949120877045,0.0262258047291541,0.05276143050601193,0.05885826592915399,-13.895002365112305,-31.63701105117798,-33.321802616119385,-1.6992109679474874,-4.6370769882433285,-4.571120488632955,-2.6820974349975586,-5.953912258148193,-6.4048943519592285,-0.30654647600655976,-0.8576413166361704,-0.837824702768352,-0.37303739314474493,-0.9925891802327309,-0.9866984029677047,-0.029056375286989327,-0.0799392806913966,-0.07771363693622402,0.004588978741671269,0.012451933136241796,0.012303270162319826,-0.14528187643494664,-0.399696403456983,-0.3885681846811201,-0.023391312248057378,-0.06445645730204791,-0.06246003198120952,-0.034996849680898445,-0.09595175456544089,-0.09357083019674788
-133.90554809570312,15.7820405960083,21.964452743530277,-2.915996789932251,-6.063971042633057,-6.153013229370117,-2.8877358436584477,5.538591384887695,-5.710962295532227,0.175,-2.0056668967969715,-3.6663589803788996,-3.7718763663998542,-0.38975128395138636,-1.0231421717358884,-1.018130706021037,-0.03824477704716,-0.10447793932990662,-0.10205525274692319,-0.3388298939836261,-0.3824482457273327,18.91347634301722,9.747676849365234,30.22573471069336,-6.345033645629883,-0.35648315517846274,-0.9605155686686093,-0.950285298377128,0.07361355709407012,0.3466998164518155,0.2645066396209852,0.02621486130579487,0.04988025782918331,0.05548613927871334,-14.128901720046997,-31.012588024139404,-32.64511251449585,-1.7824157758923138,-4.802577843343046,-4.75142649188564,-2.723284721374512,-5.953912258148193,-6.153013229370117,-0.3235403091641763,-0.8972350679011677,-0.8781238977585188,-0.38975128395138636,-1.0231421717358884,-1.018130706021037,-0.032027068246809856,-0.08794357709696835,-0.08563268108936675,0.0048073799498698265,0.012867465739686867,0.01276486703223963,-0.16013534123404927,-0.43971788548484175,-0.42816340544683373,-0.02608748149109218,-0.0719334162012243,-0.06977773112919718,-0.03824477704716,-0.10447793932990662,-0.10205525274692319
-133.95814514160156,15.74354362487793,21.965028762817383,-2.903730630874634,-6.263384819030762,-6.076279163360596,-4.631002902984619,2.185829162597656,-4.075788497924805,0.18333333333333332,-1.9522756527413967,-3.782789867426062,-3.6128302855148773,-0.40602024772423134,-1.0546654206311055,-1.0482376250669942,-0.041628279111528596,-0.11326681783516583,-0.11079056628914814,-0.38617977667373454,-0.18418815808089647,18.996933620177398,-23.92965316772461,9.208087921142578,1.4719390869140625,-0.3729791428904738,-0.9920016392145967,-0.9843080438388231,0.07679252820590943,0.11712112293586642,0.25541898618044717,0.02625347688650596,0.049636352956956856,0.05223624490999907,-14.245103120803833,-30.465383052825928,-31.87021541595459,-1.864895714452369,-4.960008196072984,-4.9215402191941156,-2.723284721374512,-5.953912258148193,-6.076279163360596,-0.33966561429370545,-0.9289417348252976,-0.9160220087301607,-0.40602024772423134,-1.0546654206311055,-1.0482376250669942,-0.03513522777089713,-0.09621025742375665,-0.09383524812135695,0.00502605434296789,0.013280982170933466,0.013199399051826826,-0.17567613885448566,-0.48105128711878326,-0.46917624060678476,-0.028918028276873058,-0.07967459732476845,-0.07741124786861518,-0.041628279111528596,-0.11326681783516583,-0.11079056628914814
-134.00474548339844,15.729656219482422,21.980026245117188,-2.8739538192749023,-6.398275852203369,-6.191242218017578,-4.430648326873779,-1.1228768825531006,-3.020123243331909,0.19166666666666665,-1.8821013356110181,-3.832645467542374,-3.6459204194875907,-0.4217044255209898,-1.0866041328606253,-1.0786202952293908,-0.04514248265753684,-0.12232185227567104,-0.11977906874939306,-0.3239250836371911,-0.1396434880837898,19.159042564605386,-16.18692398071289,-13.79556655883789,3.5732173919677734,-0.38938690513593066,-1.0235341188216622,-1.016827701138669,0.03106558026869626,0.14929625675112237,0.20556797922253547,0.025861500656671026,0.049640366767076734,0.049645439735661386,-14.395772218704224,-30.909746646881104,-31.401957511901855,-1.9469345256796533,-5.117670594108311,-5.084138505693345,-2.8389694690704346,-6.038913249969482,-6.076279163360596,-0.35642117533830087,-0.9606696886479617,-0.9524514764082187,-0.4217044255209898,-1.0866041328606253,-1.0786202952293908,-0.03838011864702989,-0.10473970841393716,-0.10230881229751251,0.005241418840864998,0.013694593910832158,0.013612715898728488,-0.19190059323514946,-0.5236985420696858,-0.5115440614875626,-0.03188820473802557,-0.08768017806350147,-0.08534834350535034,-0.04514248265753684,-0.12232185227567104,-0.11977906874939306
-134.05203247070312,15.735054969787598,22.004737854003903,-2.737107276916504,-6.254930019378662,-6.267938137054443,-4.7769269943237305,-3.471343755722046,-2.2225472927093506,0.2,-1.7066308182905492,-3.605122887381424,-3.63988666485168,-0.4359263490067444,-1.1166468235888038,-1.108952684103155,-0.048775202232593046,-0.1316272424722444,-0.12902034111691935,-0.15817464040524415,-0.23185281279895317,19.07413403070924,17.201499938964844,-9.203510284423828,16.421585083007812,-0.4052879398696194,-1.0547295458098307,-1.0481279426776564,0.07132262138550961,0.12717281675693723,0.12494509158612224,0.024951126385217574,0.049266951230509226,0.04822568641257336,-14.293910026550293,-31.125763416290283,-31.093367099761963,-2.026439699348097,-5.273647729049154,-5.240639713388282,-2.737107276916504,-6.063971042633057,-6.076279163360596,-0.37303739314474493,-0.9925891802327309,-0.9866984029677047,-0.4359263490067444,-1.1166468235888038,-1.108952684103155,-0.04175751814594338,-0.11352912129568575,-0.1110432118198263,0.005449049585343142,0.014105057846924625,0.014014490105789581,-0.20878759072971692,-0.5676456064784288,-0.5552160590991315,-0.034996849680898445,-0.09595175456544089,-0.09357083019674788,-0.048775202232593046,-0.1316272424722444,-0.12902034111691935
-134.11720275878906,15.757041931152344,22.02385711669922,-2.696971893310547,-6.362403869628906,-6.299236297607422,-6.791692733764648,-4.456236839294434,-0.2592929601669311,0.20833333333333334,-1.6297184671949339,-3.6295050198269223,-3.5883136937682387,-0.4495073362333688,-1.1468926987540282,-1.1388552982178903,-0.05252109670120445,-0.14118468162852796,-0.13851080193540177,-0.11744715800203585,-0.14813231711582356,19.15871548975441,-12.896862030029297,-3.755779266357422,4.816246032714844,-0.4205819284873441,-1.0855902495140903,-1.0785593217276934,0.10123019230693375,0.13009810629022034,0.0894769809707233,0.023642978043649683,0.048937808735033346,0.047776531529004365,-14.127760410308838,-31.342965602874756,-30.987709045410156,-2.1029096424367206,-5.427951247570451,-5.392796608638467,-2.696971893310547,-6.063971042633057,-6.076279163360596,-0.38975128395138636,-1.0231421717358884,-1.018130706021037,-0.4495073362333688,-1.1468926987540282,-1.1388552982178903,-0.04526236755000458,-0.12257570670830317,-0.12003120616755711,0.005645721920830735,0.014512695179354237,0.014412563155990522,-0.22631183775002292,-0.6128785335415159,-0.6001560308377856,-0.03824477704716,-0.10447793932990662,-0.10205525274692319,-0.05252109670120445,-0.14118468162852796,-0.13851080193540177
-134.1935577392578,15.794325828552246,22.029979705810547,-2.783961296081543,-6.550356388092041,-6.344032287597656,-7.665176391601562,-4.593132495880127,2.011178970336914,0.21666666666666667,-1.6798749971134357,-3.732649046744556,-3.5503696568043726,-0.4635062945426474,-1.1779981074768995,-1.1684417120245933,-0.056383649155726516,-0.15100133252416878,-0.1482478162022734,-0.1890478285642731,-0.05756250843299201,19.34232932977653,-22.554302215576172,-5.375518798828125,-10.438728332519531,-0.4353329306055963,-1.1165614366622925,-1.1086215229284047,0.08810942246347842,0.12032068850202272,0.10512317805542462,0.022583035028388505,0.04853610543550095,0.04753665597165268,-13.99572491645813,-31.82935094833374,-31.178728103637695,-2.1766646530279816,-5.582807183311462,-5.5431076146420235,-2.696971893310547,-6.254930019378662,-6.076279163360596,-0.40602024772423134,-1.0546654206311055,-1.0482376250669942,-0.4635062945426474,-1.1779981074768995,-1.1684417120245933,-0.04889014197171789,-0.13188038534715557,-0.12926971885862715,0.00583372299315288,0.014917063061766522,0.014808608169379074,-0.24445070985858947,-0.6594019267357779,-0.6463485942931357,-0.041628279111528596,-0.11326681783516583,-0.11079056628914814,-0.056383649155726516,-0.15100133252416878,-0.1482478162022734
-134.27590942382812,15.843863487243652,22.02694320678711,-2.911578416824341,-6.835614204406738,-6.25128984451294,-8.131253242492676,-4.929498672485352,3.88506531715393,0.225,-1.7691896144002026,-3.929898560322509,-3.3760658705674027,-0.47824954132931574,-1.2107472621462536,-1.1965755942793217,-0.06036906200013748,-0.16109089304205423,-0.1582192794879344,-0.3644285452922089,0.17208681847903132,19.511500559768944,-34.23093795776367,11.129093170165909,-15.314054489135742,-0.4497787893266132,-1.147777804965322,-1.1382891167708702,0.0904763547206212,0.22504175535803242,0.056766747357797305,0.022243885742736065,0.04896569920565406,0.04671136791008832,-14.003572702407837,-32.40158033370972,-31.35373878479004,-2.248893946633066,-5.7388890248266105,-5.691445583854351,-2.696971893310547,-6.254930019378662,-6.191242218017578,-0.4217044255209898,-1.0866041328606253,-1.0786202952293908,-0.47824954132931574,-1.2107472621462536,-1.1965755942793217,-0.05263829854943967,-0.14144520038853328,-0.1387554614983844,0.006019070941732258,0.015325106132963543,0.015197704740043094,-0.26319149274719833,-0.7072260019426664,-0.693777307491922,-0.04514248265753684,-0.12232185227567104,-0.11977906874939306,-0.06036906200013748,-0.16109089304205423,-0.1582192794879344
-134.35560607910156,15.907319068908691,22.015708923339844,-3.03003478050232,-7.159623622894287,-6.192780494689941,-7.493932723999023,-5.361828327178955,5.6472601890563965,0.23333333333333334,-1.8476218215795708,-4.161581444580297,-3.238037642580739,-0.4936463898424788,-1.245427107517756,-1.2235592413008278,-0.06448278191549148,-0.17146945227136887,-0.16841560649877463,-0.5171031110994239,0.4137622679060654,19.727321039782893,-38.88113021850586,7.021121978759872,-14.214763641357475,-0.464167182190911,-1.1795423998967483,-1.1672769059851575,0.13701770897186924,0.3678903505378425,0.05622976175185415,0.02280476396274351,0.050839894446217344,0.04537888777744641,-14.159653663635256,-33.162928104400635,-31.355277061462402,-2.320835910954555,-5.897711999483741,-5.8363845299257875,-2.696971893310547,-6.254930019378662,-6.192780494689941,-0.4359263490067444,-1.1166468235888038,-1.108952684103155,-0.4936463898424788,-1.245427107517756,-1.2235592413008278,-0.0565063584010306,-0.15127472038767284,-0.14848276904826072,0.006209105315026251,0.0157487416398677,0.015575614564864799,-0.282531792005153,-0.7563736019383642,-0.7424138452413036,-0.048775202232593046,-0.1316272424722444,-0.12902034111691935,-0.06448278191549148,-0.17146945227136887,-0.16841560649877463
-134.41574096679688,15.979589462280272,22.00054931640625,-3.189547300338745,-7.1015305519104,-6.1524176597595215,-5.069031238555908,-5.850931644439697,6.80292272567749,0.24166666666666667,-1.9651350678886974,-4.009779135214936,-3.1197414378877504,-0.510022515408218,-1.2788419336445471,-1.249557086616559,-0.0687329695438933,-0.18212646838507343,-0.1788285822205793,-0.6648193855489705,0.35211185639895654,19.703999375688145,6.971168518066406,4.843540191650391,-19.14150238037104,-0.4789864154712058,-1.2119814219078968,-1.1953977864878385,0.19561003104854477,0.3447144988002307,0.07752958663141785,0.023913111403794433,0.05239721511548275,0.04373604774392926,-14.612093687057495,-34.00952863693237,-31.23975658416748,-2.394932077356029,-6.059907109539484,-5.976988932439192,-2.696971893310547,-6.362403869628906,-6.1524176597595215,-0.4495073362333688,-1.1468926987540282,-1.1388552982178903,-0.510022515408218,-1.2788419336445471,-1.249557086616559,-0.06049791186329064,-0.16137456557023866,-0.15844441726899272,0.00640836766228249,0.016185364186944384,0.01593980219475339,-0.3024895593164532,-0.8068728278511933,-0.7922220863449636,-0.05252109670120445,-0.14118468162852796,-0.13851080193540177,-0.0687329695438933,-0.18212646838507343,-0.1788285822205793
-134.46725463867188,16.060972213745117,21.9826602935791,-3.1879379749298096,-6.890450477600098,-6.183416366577148,-3.890930414199829,-6.329713821411133,7.7126898765563965,0.25,-1.9205820588156959,-3.708135469282169,-3.073625913588163,-0.5260273658983488,-1.3097430625552318,-1.2751706358964605,-0.07311653092637954,-0.19304099390636703,-0.1894550041863831,-0.6229782868894879,0.1949464829582515,19.57984074596713,25.329608917236328,-3.7198448181152344,0.19311904907226562,-0.49429042140420176,-1.2445514946681375,-1.2226608540235524,0.1764353878225412,0.24198346457580525,0.07565564499723453,0.024799795888441837,0.05243715502783604,0.042135637395101976,-15.103059768676758,-34.537575244903564,-31.123936653137207,-2.4714521070210087,-6.222757473340688,-6.113304270117762,-2.783961296081543,-6.550356388092041,-6.1524176597595215,-0.4635062945426474,-1.1779981074768995,-1.1684417120245933,-0.5260273658983488,-1.3097430625552318,-1.2751706358964605,-0.06461699870832567,-0.17174582802580649,-0.16863325771918897,0.0066150262494662606,0.016622123065602547,0.01629075127278618,-0.32308499354162834,-0.8587291401290325,-0.8431662885959449,-0.056383649155726516,-0.15100133252416878,-0.1482478162022734,-0.07311653092637954,-0.19304099390636703,-0.1894550041863831
-134.50555419921875,16.146503448486328,21.965421676635746,-3.1207423210144043,-6.9413933753967285,-6.1909894943237305,-2.372236728668213,-6.808853626251221,8.097057342529297,0.2583333333333333,-1.8114200089189403,-3.6707164926803397,-3.004494733135205,-0.54112253263934,-1.3403323666609013,-1.3002080920059205,-0.07762588536504071,-0.20421043029520788,-0.20029007161976578,-0.5525156522643161,0.2628769740240067,19.601626407064845,-6.113147735595703,-0.9087753295898438,8.063478469848633,-0.5098136690235402,-1.277018346504938,-1.2490141300198179,0.11816942205669598,0.13894912322261654,0.03582464633865097,0.025004237627295787,0.05116825349217171,0.040936019395149306,-15.43984079360962,-34.92861223220825,-30.97089385986328,-2.549068345117701,-6.38509173252469,-6.245070650099089,-2.911578416824341,-6.835614204406738,-6.1524176597595215,-0.47824954132931574,-1.2107472621462536,-1.1965755942793217,-0.54112253263934,-1.3403323666609013,-1.3002080920059205,-0.0688654459501885,-0.1823876475800143,-0.17904170880268744,0.006823321340850511,0.01704812739425877,0.01663176688475556,-0.3443272297509425,-0.9119382379000714,-0.8952085440134372,-0.06036906200013748,-0.16109089304205423,-0.1582192794879344,-0.07762588536504071,-0.20421043029520788,-0.20029007161976578
-134.5216522216797,16.235551834106445,21.9586181640625,-3.1375865936279297,-7.138883113861084,-6.271459102630615,-0.0066468953154981,-7.89608907699585,7.464835166931152,0.26666666666666666,-1.7871123906817994,-3.7785831098924545,-3.0082512316637855,-0.5560151358950216,-1.3718205592433383,-1.3252768522697853,-0.08225934483083255,-0.21564226828890237,-0.21133404538868067,-0.5335624307068859,0.36083180959594524,19.796211121319985,-23.698768615722656,-9.656352996826172,-2.021312713623047,-0.5253667879366815,-1.3092330059243549,-1.2747543816179108,0.06517046508247305,0.12222799884495,0.04405347956307208,0.024645645871212336,0.049697691526448845,0.04017595906877343,-15.665848970413208,-35.2318811416626,-30.991063117980957,-2.626833939683407,-6.546165029621775,-6.373771908089553,-3.03003478050232,-6.890450477600098,-6.1524176597595215,-0.4936463898424788,-1.245427107517756,-1.2235592413008278,-0.5560151358950216,-1.3718205592433383,-1.3252768522697853,-0.07324350251632752,-0.19329792262938392,-0.18966466198283669,0.007028547983024159,0.017462117046487424,0.01696649969139469,-0.3662175125816376,-0.9664896131469196,-0.9483233099141835,-0.06448278191549148,-0.17146945227136887,-0.16841560649877463,-0.08225934483083255,-0.21564226828890237,-0.21133404538868067
-134.50665283203125,16.326677322387695,21.96548080444336,-3.0533347129821777,-7.153513908386231,-6.326638221740723,3.2186596393585205,-9.266220092773438,6.624533653259277,0.275,-1.6626612616069831,-3.702648947203027,-2.986308979696748,-0.5698706464084131,-1.4026759671366968,-1.3501627604339248,-0.08700826688423599,-0.22733123468170818,-0.22258540172563004,-0.4192374135442953,0.3728440491220308,19.820354269549444,-1.7556953430176847,-6.621494293212891,10.110225677490234,-0.5406116392498682,-1.340682777848143,-1.30007508544453,0.05616268746608968,0.1208354037488116,0.07183815884079651,0.023674953787960057,0.04897549318434333,0.03973733049847435,-15.689148902893066,-35.22577142715454,-31.12492084503174,-2.703058196249341,-6.703413889240715,-6.50037542722265,-3.0533347129821777,-6.890450477600098,-6.1524176597595215,-0.510022515408218,-1.2788419336445471,-1.249557086616559,-0.5698706464084131,-1.4026759671366968,-1.3501627604339248,-0.07774859951007641,-0.2044702791114518,-0.20049862102820776,0.007225665454499568,0.017870216781344796,0.017297599908487907,-0.38874299755038205,-1.022351395557259,-1.0024931051410388,-0.0687329695438933,-0.18212646838507343,-0.1788285822205793,-0.08700826688423599,-0.22733123468170818,-0.22258540172563004
-134.47030639648438,16.416257858276367,21.98927116394043,-2.963547706604004,-7.120781898498535,-6.3814897537231445,5.249407768249512,-10.449136734008787,5.040369510650635,0.2833333333333333,-1.5345202707314876,-3.580362752038223,-2.963852535112305,-0.5826583153311755,-1.432512323403682,-1.3748615315598607,-0.09186375284532912,-0.23926883737673887,-0.23404258115529555,-0.2954791973542598,0.34923996958550513,19.810114240334983,3.927841186523544,-6.582183837890625,10.77444076538086,-0.5551387992344597,-1.37141685579997,-1.3251359744331903,0.08674872627127252,0.12336116565151485,0.08569740252662669,0.022466921982356315,0.048682269405752224,0.03942374054122904,-15.463149309158325,-35.245022773742676,-31.35399293899536,-2.775693996172299,-6.85708427899985,-6.625679872165952,-2.963547706604004,-6.890450477600098,-6.183416366577148,-0.5260273658983488,-1.3097430625552318,-1.2751706358964605,-0.5826583153311755,-1.432512323403682,-1.3748615315598607,-0.08237475617036358,-0.21589875290978489,-0.21154142081515107,0.0074126632832665585,0.018275819434566132,0.01762609850326672,-0.4118737808518179,-1.0794937645489244,-1.0577071040757553,-0.07311653092637954,-0.19304099390636703,-0.1894550041863831,-0.09186375284532912,-0.23926883737673887,-0.23404258115529555
-134.41941833496094,16.49966049194336,22.029088973999023,-2.8718206882476807,-7.182432651519775,-6.434664249420166,6.402880668640137,-11.314397811889648,3.3195667266845703,0.2916666666666667,-1.4063330680793924,-3.553067323301102,-2.939553030386463,-0.5943777575651704,-1.4621212177645246,-1.3993578068130812,-0.09681690082503887,-0.2514531808581099,-0.24570389621207123,-0.17796430567577995,0.39310697936719124,19.86253164483996,-7.398090362548828,-6.380939483642578,11.007242202758789,-0.5688088775678242,-1.4018924868418285,-1.3499734086165147,0.1115665641751729,0.0955050422933687,0.09482534200500474,0.021076737326018644,0.04811355704783609,0.03919432336363408,-15.147032022476196,-35.53700494766235,-31.60524082183838,-2.8440443878391206,-7.0094624342091425,-6.749867043082573,-2.8718206882476807,-6.9413933753967285,-6.1909894943237305,-0.54112253263934,-1.3403323666609013,-1.3002080920059205,-0.5943777575651704,-1.4621212177645246,-1.3993578068130812,-0.08711483015009544,-0.2275811903001334,-0.22279119922028867,0.007587977475848204,0.018676628357366176,0.017952679108628928,-0.43557415075047723,-1.137905951500667,-1.1139559961014434,-0.07762588536504071,-0.20421043029520788,-0.20029007161976578,-0.09681690082503887,-0.2514531808581099,-0.24570389621207123
-134.35179138183594,16.577844619750977,22.08966445922852,-2.785229444503784,-7.214523792266846,-6.5433220863342285,7.73231029510498,-12.503437042236328,1.123069167137146,0.3,-1.285133492830445,-3.4962707059695024,-2.970120420845806,-0.6050872033387574,-1.491256806980937,-1.4241088103201296,-0.10185929418619517,-0.2638803209162844,-0.25757146963140565,-0.03743012228375578,0.37820979909144525,19.933115966294253,-3.8509368896484375,-13.0389404296875,10.390949249267578,-0.5816018117077076,-1.4320773749058358,-1.3747535522793564,0.1401381042496995,0.0370188276574576,0.10443918038706843,0.01941779358569032,0.04717084233727695,0.0390319528860036,-14.811519145965576,-35.81013536453247,-31.957573413848877,-2.9080090585385383,-7.160386874529179,-6.873767761396782,-2.785229444503784,-7.120781898498535,-6.271459102630615,-0.5560151358950216,-1.3718205592433383,-1.3252768522697853,-0.6050872033387574,-1.491256806980937,-1.4241088103201296,-0.09196151191432635,-0.23951516842434875,-0.23424747882261662,0.0077494698956654,0.01906961639710544,0.01827792044825832,-0.4598075595716317,-1.1975758421217437,-1.1712373941130831,-0.08225934483083255,-0.21564226828890237,-0.21133404538868067,-0.10185929418619517,-0.2638803209162844,-0.25757146963140565
-134.2678680419922,16.64296531677246,22.15495491027832,-2.666140556335449,-7.0757598876953125,-6.7111029624938965,9.481698989868164,-11.866104125976562,-0.2720232307910919,0.30833333333333335,-1.1335042727898434,-3.270370128718392,-3.0582348747078134,-0.6145330722786728,-1.5185098913869237,-1.4495941009426947,-0.10698040312185078,-0.27653457001117543,-0.26965142047259477,0.1705285877528646,0.21332123423341035,19.916384144659908,16.651668548583984,-20.133705139160156,14.290666580200195,-0.5933053989844378,-1.461415241334553,-1.3996170020139382,0.15090652447533182,0.05383087049310051,0.15223021309111587,0.017699738690691028,0.04592520415239293,0.03923066912905293,-14.340073108673096,-35.7470121383667,-32.39721727371216,-2.966526994922189,-7.307076206672765,-6.998085010069691,-2.666140556335449,-7.0757598876953125,-6.326638221740723,-0.5698706464084131,-1.4026759671366968,-1.3501627604339248,-0.6145330722786728,-1.5185098913869237,-1.4495941009426947,-0.09690572357252998,-0.25169362876880336,-0.24591095383939945,0.007896613784356186,0.019452167805244086,0.018604837468649785,-0.4845286178626499,-1.2584681438440168,-1.2295547691969972,-0.08700826688423599,-0.22733123468170818,-0.22258540172563004,-0.10698040312185078,-0.27653457001117543,-0.26965142047259477
-134.18350219726562,16.689193725585938,22.22014617919922,-2.5854296684265137,-6.775990009307861,-6.839095115661621,9.564971923828123,-10.20144748687744,-1.9579397439956665,0.31666666666666665,-1.0222548800993128,-2.888001908385351,-3.10483697414897,-0.6230518629461671,-1.5425765739568016,-1.4754677423939362,-0.11217250197973551,-0.2893893747941488,-0.2819469849925442,0.33516794673165307,-0.05947524890250109,19.772722234406537,35.97238540649414,-15.359058380126953,9.685306549072266,-0.6039416422919887,-1.4893953626985739,-1.4246779984059406,0.1523276156749891,0.1750043724546729,0.19116329109878816,0.015993273041460396,0.04375763112805969,0.03976030277296915,-13.872168064117432,-35.36948823928833,-32.90967416763306,-3.0197082114599434,-7.446976813492869,-7.123389992029702,-2.5854296684265137,-6.775990009307861,-6.3814897537231445,-0.5826583153311755,-1.432512323403682,-1.3748615315598607,-0.6230518629461671,-1.5425765739568016,-1.4754677423939362,-0.10193857059162989,-0.2641052567912915,-0.2577832704927823,0.008029526223365904,0.01981633039441749,0.018936172760135515,-0.5096928529581495,-1.3205262839564573,-1.2889163524639116,-0.09186375284532912,-0.23926883737673887,-0.23404258115529555,-0.11217250197973551,-0.2893893747941488,-0.2819469849925442
-134.1211395263672,16.715421676635742,22.263917922973636,-2.497581720352173,-6.779635429382324,-6.905065059661865,7.627421855926514,-6.837465286254883,-1.8659204244613647,0.325,-0.9055906372715263,-2.812349869454141,-3.08856887866348,-0.6305984515900965,-1.5660128228689194,-1.5012058163827986,-0.11742748907631964,-0.3024394816513898,-0.2944570334624009,0.4511147866777774,-0.07152108745487554,19.793620318633238,-0.4374504089355469,-7.916393280029297,10.541753768920898,-0.6135296695437729,-1.5160954625916214,-1.4499468553705281,0.15022714453345454,0.21425572285168834,0.19721961634299795,0.014327362569964029,0.04101523954517966,0.04032920033977048,-13.4062020778656,-35.02834177017212,-33.43324947357178,-3.067648347718864,-7.580477312958107,-7.2497342768526405,-2.497581720352173,-6.775990009307861,-6.434664249420166,-0.5943777575651704,-1.4621212177645246,-1.3993578068130812,-0.6305984515900965,-1.5660128228689194,-1.5012058163827986,-0.107051317837828,-0.27673938564622164,-0.26986616095420335,0.00814857175634997,0.020157547022622704,0.01927224627428005,-0.53525658918914,-1.3836969282311082,-1.3493308047710166,-0.09681690082503887,-0.2514531808581099,-0.24570389621207123,-0.11742748907631964,-0.3024394816513898,-0.2944570334624009
-134.06578063964844,16.719741821289062,22.2938289642334,-2.3435750007629395,-6.509111404418945,-6.942379474639893,7.291438102722168,-3.793109655380249,-2.7254059314727783,0.3333333333333333,-0.7250944238611376,-2.4655568422825223,-3.043571627002871,-0.6366409051222727,-1.5865591298879405,-1.5265689132744893,-0.12273282995233858,-0.3156608077337893,-0.3071784410730216,0.6285141441019482,-0.24099147082900496,19.587750299066272,32.46288299560547,-4.477729797363281,18.480806350708008,-0.6219822990551933,-1.5409830450163045,-1.4753890766628097,0.16745235932622596,0.2776116649590096,0.1627330720171044,0.012561767611356547,0.03769598788086628,0.04056147310639909,-12.87795639038086,-34.35502052307129,-33.940964698791504,-3.1099114952759663,-7.704915225081522,-7.376945383314048,-2.3435750007629395,-6.509111404418945,-6.5433220863342285,-0.6050872033387574,-1.491256806980937,-1.4241088103201296,-0.6366409051222727,-1.5865591298879405,-1.5265689132744893,-0.11223450366328794,-0.2895809110213575,-0.2821610699263934,0.00825282286210554,0.020471125291541558,0.01961023446347648,-0.5611725183164397,-1.4479045551067877,-1.410805349631967,-0.10185929418619517,-0.2638803209162844,-0.25757146963140565,-0.12273282995233858,-0.3156608077337893,-0.3071784410730216
-134.03005981445312,16.70369529724121,22.31090545654297,-2.330349922180176,-6.790560245513916,-6.881193161010742,5.349033355712891,-1.1056638956069946,-3.3659920692443848,0.3416666666666667,-0.6870582025008374,-2.671398037253348,-2.901075587893704,-0.642366390143113,-1.608820780198385,-1.5507445431736036,-0.1280858832035312,-0.3290676475687758,-0.320101312266135,0.5914800103654706,-0.003438529425121493,19.736892670959712,-33.773860931396484,7.342357635498047,1.5870094299316406,-0.6294381364160644,-1.564495839659794,-1.5007162232335045,0.14745614299545348,0.20049274734526742,0.08914054154571506,0.010992171970784032,0.035527989019247135,0.0400699115673484,-12.423076868057251,-33.93105697631836,-34.27883577346802,-3.147190682080322,-7.8224791982989705,-7.503581116167522,-2.330349922180176,-6.509111404418945,-6.7111029624938965,-0.6145330722786728,-1.5185098913869237,-1.4495941009426947,-0.642366390143113,-1.608820780198385,-1.5507445431736036,-0.11747982146675513,-0.30261837635185584,-0.2946670384533393,0.008344021933570228,0.02076699546759527,0.01994406230558567,-0.5873991073337756,-1.5130918817592791,-1.4733351922666964,-0.10698040312185078,-0.27653457001117543,-0.26965142047259477,-0.1280858832035312,-0.3290676475687758,-0.320101312266135
-133.98439025878906,16.67206573486328,22.33047103881836,-2.2743144035339355,-6.818274021148682,-6.75424337387085,6.49186372756958,0.0519840866327285,-4.998003005981445,0.35,-0.6070498945804745,-2.621645983398807,-2.6951975339684386,-0.647425139264617,-1.6306678300600417,-1.5732045226233407,-0.13348109269740302,-0.3426565461526095,-0.33321134995466284,0.5788214023948643,0.10279121085251412,19.655586317643674,-3.325653076171875,15.23397445678711,6.724262237548828,-0.6360165498132533,-1.5869274273944176,-1.5254383075696336,0.12994500344097298,0.12719989698027023,0.07209589991332993,0.009595638318445244,0.03463053655555169,0.03875424539118621,-12.031250715255737,-33.67357110977173,-34.32197618484497,-3.1800827490662664,-7.934637136972088,-7.6271915378481685,-2.2743144035339355,-6.509111404418945,-6.75424337387085,-0.6230518629461671,-1.5425765739568016,-1.4754677423939362,-0.647425139264617,-1.6306678300600417,-1.5732045226233407,-0.12277995938186559,-0.3158427715801426,-0.3073790243497529,0.008423722365010206,0.021055517952609775,0.020266797749001635,-0.6138997969093279,-1.5792138579007131,-1.5368951217487645,-0.11217250197973551,-0.2893893747941488,-0.2819469849925442,-0.13348109269740302,-0.3426565461526095,-0.33321134995466284
-133.93666076660156,16.63201332092285,22.35771942138672,-2.1852850914001465,-6.73231315612793,-6.704013824462891,6.439355373382568,0.0478089712560176,-6.254048824310303,0.35833333333333334,-0.495519222114428,-2.459478427872588,-2.568310785476255,-0.6515544661155706,-1.6511634836256466,-1.5946071125023094,-0.1389107132483661,-0.3564162418494899,-0.34649974255884874,0.6376296513099625,0.09324841093649273,19.537694787722664,10.315303802490234,6.027545928955078,10.683517456054688,-0.641717070447134,-1.6086448093281867,-1.5492661815913085,0.11428028144627998,0.12513971807731084,0.10274237858614314,0.008354177980558103,0.03390481373533921,0.03693235178415074,-11.63110613822937,-33.6298942565918,-34.18689489364624,-3.2085853522356698,-8.043224046640933,-7.746330907956542,-2.1852850914001465,-6.509111404418945,-6.704013824462891,-0.6305984515900965,-1.5660128228689194,-1.5012058163827986,-0.6515544661155706,-1.6511634836256466,-1.5946071125023094,-0.12812760163559173,-0.32924814499121086,-0.3202895758630138,0.008493130655499254,0.02133801450311277,0.02057427173341622,-0.6406380081779586,-1.6462407249560542,-1.601447879315069,-0.11742748907631964,-0.3024394816513898,-0.2944570334624009,-0.1389107132483661,-0.3564162418494899,-0.34649974255884874
-133.8779754638672,16.579856872558594,22.399433135986328,-2.1319944858551025,-6.783870220184326,-6.795277118682861,7.3008131980896,-0.0849624276161193,-8.53573989868164,0.36666666666666664,-0.4211637204920087,-2.4358782280471187,-2.5833299633574285,-0.6550641637863373,-1.6714624688593727,-1.6161348621969547,-0.14436958127991892,-0.3703450957566513,-0.3599675330771567,0.7182032094413944,0.08392485010322039,19.619140000081476,-6.186847686767578,-10.951595306396484,6.394872665405273,-0.6466102128863821,-1.629734738526277,-1.5722519907541395,0.09201730064291466,0.12560711732510335,0.0961827272703113,0.007313961983542737,0.03355142355147736,0.03526995556010531,-11.2655189037323,-33.6341290473938,-34.077106952667236,-3.2330510644319106,-8.148673692631386,-7.8612599537706975,-2.1319944858551025,-6.509111404418945,-6.704013824462891,-0.6366409051222727,-1.5865591298879405,-1.5265689132744893,-0.6550641637863373,-1.6714624688593727,-1.6161348621969547,-0.13351602007631155,-0.3428292678122632,-0.33339167578596496,0.008553760881181503,0.02161749232963232,0.020868023141248276,-0.6675801003815578,-1.7141463390613159,-1.6669583789298248,-0.12273282995233858,-0.3156608077337893,-0.3071784410730216,-0.14436958127991892,-0.3703450957566513,-0.3599675330771567
-133.81703186035156,16.51673698425293,22.45179557800293,-1.948509097099304,-6.351728439331055,-6.823402404785156,7.174688816070557,-0.1307094693183899,-10.253379821777344,0.375,-0.21883520066436968,-1.9325422470489144,-2.53496176964204,-0.6568877904585403,-1.6875669875847803,-1.6372595436106383,-0.14984364620040674,-0.3844081539865245,-0.3736113626072453,0.9197660807183561,-0.18883778147225716,19.287253446814752,51.85701370239258,-3.3750343322753906,22.01824665069583,-0.6506595899536356,-1.6499363100656452,-1.5943901168213692,0.14768733906276632,0.19458493458647658,0.06730286200987906,0.005878571039781344,0.031395503164845406,0.03414833192259603,-10.870453000068665,-33.47674608230591,-33.9581298828125,-3.253297949768178,-8.249681550328226,-7.971950584106846,-1.948509097099304,-6.351728439331055,-6.704013824462891,-0.642366390143113,-1.608820780198385,-1.5507445431736036,-0.6568877904585403,-1.6875669875847803,-1.6372595436106383,-0.13893818332592517,-0.35657873706281024,-0.34667826009280966,0.008602066828979358,0.02187865928013368,0.02115254405778557,-0.6946909166296259,-1.7828936853140511,-1.7333913004640484,-0.1280858832035312,-0.3290676475687758,-0.320101312266135,-0.14984364620040674,-0.3844081539865245,-0.3736113626072453
-133.7812957763672,16.442424774169922,22.49611091613769,-1.9179649353027344,-6.261232852935791,-6.763992786407471,4.467942237854004,1.521613597869873,-10.665549278259276,0.3833333333333333,-0.17145953990816398,-1.775982398707428,-2.4000845872824046,-0.658316619957775,-1.7023668409073422,-1.6572602485046584,-0.1553296180333882,-0.39859454432741903,-0.38742186467811746,0.9174652258733361,-0.21676865355579716,19.177203086111373,10.85947036743164,7.129154205322266,3.6652994155883523,-0.653849635916568,-1.6686455222074368,-1.6156932578875804,0.1536369953470804,0.26211045686533124,0.04503561936293434,0.004393215480657263,0.028508819464943384,0.03332803832653621,-10.458068013191223,-32.94741868972778,-33.84092950820923,-3.26924817958284,-8.343227611037184,-8.078466289437902,-1.9179649353027344,-6.261232852935791,-6.704013824462891,-0.647425139264617,-1.6306678300600417,-1.5732045226233407,-0.658316619957775,-1.7023668409073422,-1.6572602485046584,-0.14438693029189661,-0.3704841164145388,-0.3601423705752062,0.008637776207559228,0.02211545312646403,0.021430213973951957,-0.7219346514594831,-1.8524205820726942,-1.800711852876031,-0.13348109269740302,-0.3426565461526095,-0.33321134995466284,-0.1553296180333882,-0.39859454432741903,-0.38742186467811746
-133.7711944580078,16.35832977294922,22.525001525878903,-2.115072727203369,-6.716243267059326,-6.644840240478516,1.8794958591461184,3.544037103652954,-10.207491874694824,0.39166666666666666,-0.35052017149658976,-2.162532767914673,-2.2077262432912974,-0.6612376213869132,-1.7203879473066312,-1.6756579671987526,-0.16083993154494583,-0.4129311105549743,-0.4013856810714404,0.6412603068962552,0.10125379523134384,19.46991154063599,-54.60124969482422,14.29830551147461,-23.652935028076172,-0.6566121323410272,-1.6865895456567546,-1.6361839468026627,0.11886596541739419,0.24312985006451834,0.07200482097327629,0.003617755127191799,0.026814383806522225,0.032148734936718756,-10.298826336860657,-32.84538793563843,-33.731526374816895,-3.2830606617051363,-8.432947728283773,-8.180919734013314,-1.9179649353027344,-6.261232852935791,-6.644840240478516,-0.6515544661155706,-1.6511634836256466,-1.5946071125023094,-0.6612376213869132,-1.7203879473066312,-1.6756579671987526,-0.14985869806140517,-0.3845390292950118,-0.37377723679856173,0.008667575428366789,0.022338553178543386,0.021697921491804852,-0.7492934903070259,-1.922695146475059,-1.8688861839928086,-0.1389107132483661,-0.3564162418494899,-0.34649974255884874,-0.16083993154494583,-0.4129311105549743,-0.4013856810714404
-133.7539520263672,16.269643783569336,22.54039001464844,-2.237638473510742,-6.543302536010742,-6.517520904541016,3.244401693344116,5.104584693908691,-9.605198860168455,0.4,-0.4525421632517619,-1.9194537887284202,-2.0100186688264543,-0.6650088060806779,-1.7363833955460348,-1.6924081227723065,-0.16638167159561815,-0.42740097218452455,-0.41548908209454294,0.4753172136707639,-0.0004337921483251721,19.300731590095772,20.752887725830078,15.2783203125,-14.707889556884766,-0.6593030003340488,-1.7036335280408323,-1.655744148856662,0.1340260672898726,0.22545620158880716,0.12682327911458022,0.003907457552679212,0.025729261813712895,0.030222847000181952,-10.351179718971252,-32.65637731552124,-33.54503345489502,-3.296515001670244,-8.518167640204162,-8.27872074428331,-1.9179649353027344,-6.261232852935791,-6.517520904541016,-0.6550641637863373,-1.6714624688593727,-1.6161348621969547,-0.6650088060806779,-1.7363833955460348,-1.6924081227723065,-0.15535288973085556,-0.3987359753620187,-0.38757510470570056,0.008699526246701427,0.022552895705722494,0.02194942903780269,-0.7767644486542779,-1.9936798768100936,-1.9378755235285028,-0.14436958127991892,-0.3703450957566513,-0.3599675330771567,-0.16638167159561815,-0.42740097218452455,-0.41548908209454294
-133.75082397460938,16.182331085205078,22.5421142578125,-2.1611287593841557,-6.254605770111084,-6.422165393829346,1.9653549194335935,6.067782402038574,-8.325460433959961,0.4083333333333333,-0.35532201278309383,-1.5652307020652438,-1.846869846581006,-0.6679698228538704,-1.7494269847299118,-1.7077987048271481,-0.17194808678606707,-0.44197953039060717,-0.4297207379681025,0.5094903706529449,-0.12835778346946072,19.01645007815054,34.643611907958984,11.44266128540039,9.181165695190376,-0.6618841321475554,-1.7192264312149401,-1.6740769173827008,0.13795793931695557,0.2000248930969176,0.16683033875104814,0.004607270564616999,0.02497173468947632,0.02790166268178596,-10.380313992500305,-32.127112865448,-33.171921730041504,-3.3094206607377767,-8.5961321560747,-8.370384586913504,-1.9179649353027344,-6.254605770111084,-6.422165393829346,-0.6568877904585403,-1.6875669875847803,-1.6372595436106383,-0.6679698228538704,-1.7494269847299118,-1.7077987048271481,-0.1608685908320852,-0.4130628622888099,-0.40152574568388977,0.008737558801669716,0.022760695181230646,0.022181547588559915,-0.804342954160426,-2.0653143114440495,-2.0076287284194487,-0.14984364620040674,-0.3844081539865245,-0.3736113626072453,-0.17194808678606707,-0.44197953039060717,-0.4297207379681025
-133.76162719726562,16.100088119506836,22.53584671020508,-2.215745210647583,-6.392375469207764,-6.345593452453613,0.6059815287590027,6.366776466369629,-7.319331645965576,0.4166666666666667,-0.38963654214223453,-1.6394276351320913,-1.704651334952218,-0.6712167940383891,-1.7630888816893457,-1.7220041326184166,-0.17754156006972033,-0.4566719377380184,-0.4440707724065893,0.40237474282737284,-0.007984370522447288,19.076961641110913,-16.532363891601562,9.18863296508789,-6.553974151611275,-0.6647499328635251,-1.734330810035853,-1.6910258351842564,0.12756152782849747,0.19708543892860791,0.16833116347090096,0.005147301409459642,0.023849701394495954,0.025588967335514565,-10.647550106048584,-32.16775989532471,-32.69411277770996,-3.3237496643176256,-8.671654050179265,-8.455129175921282,-1.9179649353027344,-6.254605770111084,-6.345593452453613,-0.658316619957775,-1.7023668409073422,-1.6572602485046584,-0.6712167940383891,-1.7630888816893457,-1.7220041326184166,-0.16640817360594792,-0.4275156190391087,-0.41561762764375854,0.008780423505955072,0.022958904839738954,0.022394447102604395,-0.8320408680297396,-2.1375780951955434,-2.0780881382187926,-0.1553296180333882,-0.39859454432741903,-0.38742186467811746,-0.17754156006972033,-0.4566719377380184,-0.4440707724065893
-133.7696075439453,16.023855209350586,22.526386260986328,-2.345010757446289,-6.436967849731445,-6.182719230651856,1.0093032121658323,6.080844402313232,-6.47093677520752,0.425,-0.4972698098698416,-1.6195743246771928,-1.4788305400784765,-0.6753607091206377,-1.7765853343949891,-1.734327720452404,-0.18316956597905898,-0.4714768155246433,-0.45852350341035936,0.19835020557793281,0.06941389926034786,19.03580546850106,-5.351085662841797,19.54490661621083,-15.511865615844727,-0.6681587506960976,-1.7491745087333825,-1.7064393295738056,0.08703934546057508,0.1728524732781329,0.17455205397496076,0.0054561825014422865,0.022007416804793692,0.023271443738341648,-11.074595928192139,-32.34349489212036,-32.112839221954346,-3.3407937534804883,-8.745872543666913,-8.532196647869029,-2.115072727203369,-6.254605770111084,-6.182719230651856,-0.6612376213869132,-1.7203879473066312,-1.6756579671987526,-0.6753607091206377,-1.7765853343949891,-1.734327720452404,-0.17197616319508208,-0.4420920732785535,-0.42983795539020686,0.008825824156463734,0.02314216059893858,0.02258799218682187,-0.8598808159754104,-2.2104603663927676,-2.1491897769510344,-0.16083993154494583,-0.4129311105549743,-0.4013856810714404,-0.18316956597905898,-0.4714768155246433,-0.45852350341035936
-133.77919006347656,15.956758499145508,22.51606750488281,-2.4745373725891118,-6.360694408416748,-6.073273658752441,0.8806688189506531,5.447380065917969,-5.68199348449707,0.43333333333333335,-0.6032136308740266,-1.4797970773210904,-1.3093946320928351,-0.6803874893779213,-1.7889169767059983,-1.745239342386511,-0.188839461723875,-0.4863844569971933,-0.4730671645969136,0.02950064051889103,0.029408456310072963,18.9459009602013,9.152812957763672,13.133468627929794,-15.543193817138725,-0.6719887242942992,-1.762880314613256,-1.7203556046113573,0.12439122970480895,0.10561217283485332,0.17967847448746704,0.0060699308063485715,0.020909672674231453,0.020951584335469002,-11.43406057357788,-31.987946033477783,-31.541272640228275,-3.3599436214714964,-8.814401573066279,-8.601778023056786,-2.1611287593841557,-6.254605770111084,-6.073273658752441,-0.6650088060806779,-1.7363833955460348,-1.6924081227723065,-0.6803874893779213,-1.7889169767059983,-1.745239342386511,-0.1775760692308679,-0.45678274256699736,-0.44417425209530154,0.008876107424158647,0.023316373413062034,0.022762113054218196,-0.8878803461543395,-2.2839137128349867,-2.2208712604765077,-0.16638167159561815,-0.42740097218452455,-0.41548908209454294,-0.188839461723875,-0.4863844569971933,-0.4730671645969136
-133.79481506347656,15.899827003479004,22.50456047058105,-2.523137331008911,-6.558571815490723,-6.066821098327637,0.1528401523828506,4.651083946228027,-4.632245063781738,0.44166666666666665,-0.6269778799010521,-1.6138131706748338,-1.244565029948129,-0.6856123050437634,-1.8023654197949552,-1.7556107176360787,-0.1945528975992397,-0.5014041688288179,-0.4876972539105476,-0.04216058763639802,0.15558266934638765,19.092317652776305,-23.745288848876953,0.7743072509765625,-5.831995010375923,-0.6761094240869163,-1.77607671946304,-1.7329961235841118,0.15733908720506787,0.1109640933126679,0.16047510583134425,0.007059711400605892,0.02082737952631056,0.01883363479525451,-11.71955943107605,-32.003215312957764,-31.090572834014893,-3.380547120434582,-8.8803835973152,-8.664980617920559,-2.1611287593841557,-6.254605770111084,-6.066821098327637,-0.6679698228538704,-1.7494269847299118,-1.7077987048271481,-0.6856123050437634,-1.8023654197949552,-1.7556107176360787,-0.18321031443159222,-0.471583381895856,-0.4586158864585025,0.00893470341064074,0.023489900514185518,0.022918681552434466,-0.9160515721579611,-2.3579169094792802,-2.2930794322925125,-0.17194808678606707,-0.44197953039060717,-0.4297207379681025,-0.1945528975992397,-0.5014041688288179,-0.4876972539105476
-133.79962158203125,15.852121353149414,22.499248504638672,-2.4699482917785645,-6.389659881591797,-6.05575704574585,1.2902657985687256,3.420396327972412,-4.398258209228516,0.45,-0.5492528825009946,-1.3814686611679452,-1.1758952117205892,-0.6901894123979383,-1.8138776586380214,-1.765409844400417,-0.20030447603588916,-0.5165198159841348,-0.5024090026138844,0.006677943059965395,0.05872183768447584,18.95314489190888,20.269432067871094,1.3276863098144531,6.382684707641602,-0.6805533419957299,-1.7889668542446622,-1.7445183514987654,0.12492393366127684,0.0780991947511117,0.12337062807951991,0.0076257627642011385,0.02014350838021092,0.01710814062779442,-12.028378963470459,-32.13826942443848,-30.724164485931396,-3.40276670997865,-8.94483427122331,-8.722591757493827,-2.215745210647583,-6.360694408416748,-6.05575704574585,-0.6712167940383891,-1.7630888816893457,-1.7220041326184166,-0.6901894123979383,-1.8138776586380214,-1.765409844400417,-0.18888159228155663,-0.4864914390145615,-0.4731535393876588,0.008998212701714251,0.02365769406566183,0.023061084695223392,-0.9444079614077832,-2.4324571950728076,-2.365767696938294,-0.17754156006972033,-0.4566719377380184,-0.4440707724065893,-0.20030447603588916,-0.5165198159841348,-0.5024090026138844
-133.8099822998047,15.814196586608888,22.493247985839844,-2.450153112411499,-6.372473239898682,-6.119394779205322,0.6045215725898743,2.615930795669556,-3.423611640930176,0.4583333333333333,-0.5057966210264788,-1.3030905923396432,-1.1821021899502178,-0.6944043842398256,-1.8247367469075184,-1.7752606959833355,-0.20609117923788772,-0.5317259555416974,-0.5172028417470789,0.04816861815152989,0.015039560747141897,18.978212013641908,2.062397003173828,-7.636528015136719,2.3754215240478516,-0.6851908600360173,-1.8012964272882965,-1.7551696641717491,0.06583910292613868,0.08080695221531306,0.05241749905863563,0.007578858861357996,0.019188327309861006,0.01613771426882503,-12.262786865234375,-32.118367195129395,-30.497965812683105,-3.4259543001800865,-9.006482136441482,-8.775848320858746,-2.345010757446289,-6.360694408416748,-6.05575704574585,-0.6753607091206377,-1.7765853343949891,-1.734327720452404,-0.6944043842398256,-1.8247367469075184,-1.7752606959833355,-0.1945915161151901,-0.5015022425752973,-0.48777995325575674,0.009061301355403194,0.02381744982877464,0.023195518420338478,-0.9729575805759505,-2.5075112128764867,-2.4388997662787837,-0.18316956597905898,-0.4714768155246433,-0.45852350341035936,-0.20609117923788772,-0.5317259555416974,-0.5172028417470789
-133.82139587402344,15.786235809326172,22.4837703704834,-2.4801838397979736,-6.548851013183594,-6.096765518188477,0.6321977376937866,2.1297085285186768,-2.348108053207397,0.4666666666666667,-0.5123323325336591,-1.4175878709583483,-1.102314807538595,-0.6986738203442728,-1.8365499791655047,-1.7844466527128238,-0.21191346107409,-0.5470305387014099,-0.5320732305196857,-0.008234922837690423,0.1434340462196273,19.09378533337958,-21.165332794189453,2.7155113220214844,-3.603687286376953,-0.6898534822807443,-1.8132893562423995,-1.7651934506238334,0.026840941656324915,0.09887892769506224,0.025548097117308287,0.007180085779976196,0.018613104948448856,0.015508685092053302,-12.39795994758606,-32.23025035858154,-30.412012100219727,-3.4492674114037216,-9.066446781211997,-8.825967253119167,-2.450153112411499,-6.360694408416748,-6.05575704574585,-0.6803874893779213,-1.7889169767059983,-1.745239342386511,-0.6986738203442728,-1.8365499791655047,-1.7844466527128238,-0.2003402951341963,-0.5166129872106506,-0.5024898986776221,0.009121064359681259,0.0239724327446306,0.02332472068859989,-1.0017014756709814,-2.5830649360532534,-2.51244949338811,-0.188839461723875,-0.4863844569971933,-0.4730671645969136,-0.21191346107409,-0.5470305387014099,-0.5320732305196857
-133.84030151367188,15.769783020019531,22.472618103027344,-2.499366044998169,-6.232060432434082,-6.091454982757568,-0.2562319934368133,1.2613730430603027,-1.153165578842163,0.475,-0.5078559919400458,-1.040762721863394,-1.0406996726141413,-0.7029059536104398,-1.8452230018476996,-1.7931191499846082,-0.21777101068751034,-0.5624073970501408,-0.5470158901028908,-0.004765441222773759,-0.08525816355175544,18.875535836533878,38.014869689941406,0.6372642517089844,-2.3018646240234375,-0.694357175127248,-1.8245505612707398,-1.7747694121434527,0.027946002035836012,0.13629453939530106,0.025215687407408715,0.006811025384059975,0.01715708197228437,0.014876662152960905,-12.422788619995117,-32.10161638259888,-30.430193424224854,-3.47178587563624,-9.122752806353699,-8.873847060717264,-2.450153112411499,-6.232060432434082,-6.05575704574585,-0.6856123050437634,-1.8023654197949552,-1.7556107176360787,-0.7029059536104398,-1.8452230018476996,-1.7931191499846082,-0.2061266049269234,-0.5318175752212402,-0.5172796437788174,0.009177813338362886,0.024115226401621396,0.023448636482918072,-1.030633024634617,-2.659087876106201,-2.5863982188940873,-0.1945528975992397,-0.5014041688288179,-0.4876972539105476,-0.21777101068751034,-0.5624073970501408,-0.5470158901028908
-133.88275146484375,15.767255783081056,22.460214614868164,-2.479856014251709,-6.411182403564453,-6.134961128234863,-2.99493145942688,0.2591904103755951,0.0898291245102882,0.48333333333333334,-0.46494383346783996,-1.1616589285200174,-1.028191106430378,-0.7067804855560051,-1.8549034929186998,-1.8016874092048614,-0.22366084806714373,-0.5778649261577966,-0.5620299518462646,0.014282680213993672,0.030036176931835783,19.023554555179498,-21.49463653564453,-5.220737457275391,2.3412036895751953,-0.6985908112296964,-1.835058175895489,-1.783984750457209,0.017909366548059552,0.11283946024895133,0.03016123615772034,0.0065918089915003135,0.016236779075825377,0.014301844257293604,-12.379507303237915,-31.954226970672607,-30.49833345413208,-3.4929540561484815,-9.175290879477444,-8.919923752286046,-2.450153112411499,-6.232060432434082,-6.05575704574585,-0.6901894123979383,-1.8138776586380214,-1.765409844400417,-0.7067804855560051,-1.8549034929186998,-1.8016874092048614,-0.21194819502050422,-0.547109726687036,-0.5321461833659609,0.00923273328706648,0.024250311004322206,0.023567756028972767,-1.059740975102521,-2.7355486334351795,-2.660730916829804,-0.20030447603588916,-0.5165198159841348,-0.5024090026138844,-0.22366084806714373,-0.5778649261577966,-0.5620299518462646
-133.92929077148438,15.769790649414062,22.45175552368164,-2.538259506225586,-6.748147010803223,-6.123414039611816,-3.660504102706909,-0.5420740246772766,0.2784138917922973,0.49166666666666664,-0.49986919635523774,-1.4366776357598834,-0.9609708524092548,-0.7109460621922988,-1.8668758065500322,-1.8096954996416053,-0.22958539858541288,-0.5934222245457136,-0.5771107476766113,-0.07355270567545025,0.263482450253915,19.265242773126882,-40.435752868652344,1.385650634765625,-7.008419036865234,-0.7027421411885685,-1.845657805477891,-1.7928418815054468,0.032414436851080565,0.19550665629917013,0.018433573620471582,0.006513616602993419,0.01625206565165617,0.013619311961471347,-12.447818517684937,-32.31271409988403,-30.565990447998047,-3.5137107059428425,-9.228289027389454,-8.964209407527234,-2.450153112411499,-6.232060432434082,-6.091454982757568,-0.6944043842398256,-1.8247367469075184,-1.7752606959833355,-0.7109460621922988,-1.8668758065500322,-1.8096954996416053,-0.21780437953040893,-0.5624902083993517,-0.5470865323785062,0.00928700339893773,0.024385544220959957,0.02368120815354622,-1.0890218976520447,-2.8124510419967583,-2.7354326618925313,-0.20609117923788772,-0.5317259555416974,-0.5172028417470789,-0.22958539858541288,-0.5934222245457136,-0.5771107476766113
-133.97613525390625,15.781189918518066,22.448020935058597,-2.6058712005615234,-6.743505954742432,-6.09125280380249,-3.808093786239624,-1.622764229774475,0.5963890552520752,0.5,-0.5431930476004303,-1.3679538462693683,-0.874114944154333,-0.7154726709223024,-1.8782754219356101,-1.8169797908428913,-0.23554767084309874,-0.6090745197285103,-0.5922522459336353,-0.14888974127492519,0.2619667054916305,19.258703788644837,0.5569267272949219,3.8593482971191406,-8.1134033203125,-0.7069557985250638,-1.8563655404835093,-1.8011857004773577,0.05321512341741502,0.2214645058322776,0.020273067086767793,0.006585637034891227,0.016654269863221965,0.012916913726343087,-12.603536605834961,-32.68374681472778,-30.537848472595215,-3.534778992625319,-9.281827702417546,-9.005928502386789,-2.479856014251709,-6.232060432434082,-6.09125280380249,-0.6986738203442728,-1.8365499791655047,-1.7844466527128238,-0.7154726709223024,-1.8782754219356101,-1.8169797908428913,-0.22369567785145117,-0.5779599212367142,-0.5620964132158176,0.009341869118439376,0.024524058593448504,0.023788771405245004,-1.1184783892572558,-2.8897996061835713,-2.810482066079088,-0.21191346107409,-0.5470305387014099,-0.5320732305196857,-0.23554767084309874,-0.6090745197285103,-0.5922522459336353
-134.01756286621094,15.799942016601562,22.45408058166504,-2.6079719066619877,-6.801712512969971,-6.124444007873535,-3.520177364349365,-3.102511405944824,0.5131556391716003,0.5083333333333333,-0.5206786577777294,-1.362312239763261,-0.853205743935499,-0.7198116597371168,-1.8896280239336374,-1.8240898387090205,-0.24154610134090804,-0.6248214199279574,-0.6074529945895438,-0.1404858123862633,0.29047888734645383,19.32154617994008,-6.9847869873046875,-3.9829444885253906,-0.25208473205571735,-0.7111833664036326,-1.866981149437136,-1.8091143376765975,0.059233425475196284,0.25172273570918896,0.020364070462292147,0.006723146858024335,0.01774640376491019,0.01222164094691338,-12.731324672698975,-32.93660831451416,-30.565526962280273,-3.5559168320181627,-9.33490574718568,-9.045571688382987,-2.479856014251709,-6.232060432434082,-6.09125280380249,-0.7029059536104398,-1.8452230018476996,-1.7931191499846082,-0.7198116597371168,-1.8896280239336374,-1.8240898387090205,-0.22962220590481475,-0.5935180974820237,-0.577172366029789,0.009397877250101489,0.02467188133662098,0.02389052525764475,-1.1481110295240737,-2.9675904874101184,-2.8858618301489454,-0.21777101068751034,-0.5624073970501408,-0.5470158901028908,-0.24154610134090804,-0.6248214199279574,-0.6074529945895438
-134.04965209960938,15.825003623962402,22.462787628173828,-2.527578592300415,-6.752119064331055,-6.285162448883057,-2.4426631927490234,-3.7979891300201416,0.77979975938797,0.5166666666666666,-0.4165950153403952,-1.2494841451931027,-0.9587872929671528,-0.7232832848649534,-1.9000403918102466,-1.8320797328170801,-0.24757346204811598,-0.6406550898597094,-0.6227203256963528,0.009278328399292032,0.19562902122812872,19.372670945226723,5.951213836669922,-19.286212921142578,9.647197723388725,-0.7152588326545353,-1.8779446274296454,-1.8169064542430917,0.05482900408336767,0.15836097073844213,0.07630392421565485,0.00662661589932418,0.017876287769332807,0.011889617019362158,-12.75953722000122,-33.45666694641113,-30.75923442840576,-3.5762941632726766,-9.389723137148227,-9.084532271215458,-2.479856014251709,-6.411182403564453,-6.09125280380249,-0.7067804855560051,-1.8549034929186998,-1.8016874092048614,-0.7232832848649534,-1.9000403918102466,-1.8320797328170801,-0.2355826961769359,-0.6091676360439375,-0.5923132531484816,0.009453040977053353,0.024820792683759894,0.02398958140577387,-1.1779134808846794,-3.0458381802196874,-2.961566265742408,-0.22366084806714373,-0.5778649261577966,-0.5620299518462646,-0.24757346204811598,-0.6406550898597094,-0.6227203256963528
-134.08590698242188,15.853918075561523,22.471763610839844,-2.466679096221924,-6.741031646728516,-6.335260391235352,-2.9939067363739014,-4.192652702331543,1.1536649465560913,0.525,-0.3334542714106732,-1.1763566869025759,-0.9525794328193555,-0.7260620704600423,-1.9098433642011015,-1.8400178947572414,-0.2536239793019497,-0.6565704512280519,-0.6380538081526632,0.08907369011556354,0.18767494286434355,19.38174914235842,1.3304901123046875,-6.011753082275391,7.307939529418945,-0.7191151496353427,-1.8889326016861254,-1.8245725513535676,0.059292949111924995,0.025189410296112498,0.11025037603821498,0.006044001724552091,0.01703822389808937,0.011980464282484603,-12.746360301971436,-33.786516189575195,-30.95953369140625,-3.5955757481767137,-9.444663008430627,-9.122862756767837,-2.466679096221924,-6.741031646728516,-6.09125280380249,-0.7109460621922988,-1.8668758065500322,-1.8096954996416053,-0.7260620704600423,-1.9098433642011015,-1.8400178947572414,-0.24157532242389707,-0.6249087410579885,-0.6075180244097613,0.009503151090829196,0.024962683668063788,0.02408938953609816,-1.2078766121194853,-3.1245437052899425,-3.0375901220488064,-0.22958539858541288,-0.5934222245457136,-0.5771107476766113,-0.2536239793019497,-0.6565704512280519,-0.6380538081526632
-134.12705993652344,15.879546165466309,22.479949951171875,-2.411410093307495,-6.970223426818848,-6.529276371002197,-3.5226616859436035,-3.804776668548584,0.8657355308532715,0.5333333333333333,-0.25716951116904063,-1.3423427051201857,-1.088851147984177,-0.7282051497197843,-1.9210295534104362,-1.8490916543237763,-0.25969235554961456,-0.6725790308398055,-0.653462905272028,0.20753667974907059,0.2658904472161598,19.654622592229988,-27.503013610839844,-23.281917572021484,6.632280349731445,-0.7225669671408398,-1.8997633510582062,-1.832451782290002,0.08621065213438794,0.09737249226822868,0.17663716665044568,0.00506060072551456,0.016721174696463375,0.0126843844920685,-12.619510889053345,-34.00859260559082,-31.36539602279663,-3.612834835704199,-9.498816755291031,-9.16225891145001,-2.411410093307495,-6.741031646728516,-6.09125280380249,-0.7154726709223024,-1.8782754219356101,-1.8169797908428913,-0.7282051497197843,-1.9210295534104362,-1.8490916543237763,-0.24759671381673742,-0.6407401023168069,-0.6227884559288446,0.009544924917427953,0.025101982555745805,0.024195009599677412,-1.2379835690836871,-3.2037005115840347,-3.113942279644223,-0.23554767084309874,-0.6090745197285103,-0.5922522459336353,-0.25969235554961456,-0.6725790308398055,-0.653462905272028
-134.16160583496094,15.900263786315918,22.488569259643555,-2.299269199371338,-7.0465087890625,-6.569453239440918,-2.7786452770233154,-3.4796812534332275,0.4730693101882934,0.5416666666666666,-0.1256608518594171,-1.3535310004630885,-1.0699426524110374,-0.7292523234852795,-1.9323089784142953,-1.8580078430938682,-0.2657694582453252,-0.6886816056599246,-0.6689463039644769,0.3198402916049662,0.34498794994331067,19.703246501173084,-9.154243469238281,-4.821224212646484,13.456907272338867,-0.7253228976534352,-1.9105700623539434,-1.8406573927401972,0.11690723143883767,0.13792845779344892,0.18292372165744547,0.0038349675512583782,0.016822250516764416,0.013422406173448958,-12.31290888786316,-34.31159543991089,-31.84359645843506,-3.626614488267176,-9.552850311769717,-9.203286963700986,-2.299269199371338,-6.741031646728516,-6.124444007873535,-0.7198116597371168,-1.8896280239336374,-1.8240898387090205,-0.7292523234852795,-1.9323089784142953,-1.8580078430938682,-0.2536410712971827,-0.6566615195030898,-0.6381272675350129,0.009576276461214594,0.025242123073146525,0.024306815222665885,-1.2682053564859135,-3.283307597515449,-3.1906363376750644,-0.24154610134090804,-0.6248214199279574,-0.6074529945895438,-0.2657694582453252,-0.6886816056599246,-0.6689463039644769
-134.1815643310547,15.915363311767578,22.499515533447266,-2.2627556324005127,-7.207464218139648,-6.642807960510254,-1.0690999031066897,-3.156045436859131,-0.2635064721107483,0.55,-0.0712558935892833,-1.448091399993479,-1.083901716605487,-0.7298461225985234,-1.9443764067475742,-1.867040357398914,-0.2718515092669796,-0.7048847423828211,-0.6845049736094678,0.3727213883272295,0.4350895130026454,19.85322044915377,-19.314651489257812,-8.802566528320312,4.381628036499023,-0.7273297902257166,-1.921519738916731,-1.849247496478176,0.1113850826025537,0.19913698335831775,0.15456252650347707,0.002682146343277462,0.017583908223927,0.01390388000164978,-11.967692613601685,-34.717347145080566,-32.36196041107178,-3.636648951128583,-9.607598694583654,-9.24623748239088,-2.2627556324005127,-6.741031646728516,-6.285162448883057,-0.7232832848649534,-1.9000403918102466,-1.8320797328170801,-0.7298461225985234,-1.9443764067475742,-1.867040357398914,-0.259702152882397,-0.6726741839940625,-0.6535376633389978,0.00959776648942299,0.025388576527698,0.02442265429316243,-1.298510764411985,-3.3633709199703126,-3.267688316694989,-0.24757346204811598,-0.6406550898597094,-0.6227203256963528,-0.2718515092669796,-0.7048847423828211,-0.6845049736094678
-134.1846923828125,15.923787117004396,22.509519577026367,-2.2593817710876465,-7.218565940856934,-6.774931907653809,0.9460232853889464,-2.5669820308685303,-0.6978342533111572,0.5583333333333333,-0.050537445494379885,-1.3920627480812842,-1.1555482184563761,-0.7302672679776433,-1.9559769296482514,-1.8766699258860504,-0.27793706983345995,-0.7211845501298898,-0.7001438896585183,0.43546605615728845,0.36758370078801195,19.94841477353429,-1.3322067260742188,-15.854873657226562,0.4048633575439453,-0.7287265868482546,-1.9327070464843317,-1.85816553509197,0.09390411769377802,0.19632291231663174,0.16129079656570255,0.001678913481372418,0.018282038327528713,0.014429760724992082,-11.699495792388916,-35.183794021606445,-32.85172986984253,-3.643632934241273,-9.663535232421658,-9.29082767545985,-2.2593817710876465,-6.741031646728516,-6.335260391235352,-0.7260620704600423,-1.9098433642011015,-1.8400178947572414,-0.7302672679776433,-1.9559769296482514,-1.8766699258860504,-0.2657748744394658,-0.6887800760480985,-0.6690223761314308,0.009611006784568846,0.02554091673950484,0.02454289383883943,-1.328874372197329,-3.4439003802404926,-3.345111880657154,-0.2536239793019497,-0.6565704512280519,-0.6380538081526632,-0.27793706983345995,-0.7211845501298898,-0.7001438896585183
-134.17697143554688,15.928118705749512,22.519466400146484,-2.2314565181732178,-7.26749849319458,-6.773905754089356,2.28206205368042,-2.1726253032684326,-1.1054335832595823,0.5666666666666667,-0.005737798277263284,-1.374082617318484,-1.0936010535613798,-0.7303150829632872,-1.9674276181259054,-1.8857832679990618,-0.284023028858154,-0.737579780280939,-0.7158587502251771,0.45680573298295574,0.41280089659092034,19.97379140126635,-5.871906280517578,0.12313842773426842,3.3510303497314453,-0.7295771893489036,-1.9442238972692922,-1.8673186097403343,0.07052066125687778,0.1270074090356473,0.11374124826815628,0.00087764616526329,0.018415432177868608,0.014554899707128246,-11.46427321434021,-35.71026086807251,-33.29037523269653,-3.647885946744518,-9.721119486346462,-9.33659304870167,-2.2314565181732178,-6.970223426818848,-6.529276371002197,-0.7282051497197843,-1.9210295534104362,-1.8490916543237763,-0.7303150829632872,-1.9674276181259054,-1.8857832679990618,-0.2718546843507067,-0.704981941858676,-0.6845833645459336,0.009617903226709247,0.025694370176276213,0.024664176883440206,-1.3592734217535334,-3.52490970929338,-3.422916822729668,-0.25969235554961456,-0.6725790308398055,-0.653462905272028,-0.284023028858154,-0.737579780280939,-0.7158587502251771
-134.1529541015625,15.922757148742676,22.529943466186523,-2.191476583480835,-7.308609962463379,-6.894914627075195,4.188363075256348,-1.452929139137268,-1.923283338546753,0.575,0.050341046974331505,-1.3482458642007957,-1.153344473244986,-0.729895574238501,-1.9786630003275787,-1.89539447194277,-0.2901054919768082,-0.7540686386170021,-0.7316537041580335,0.5441093470871683,0.38163175675421585,20.07238272209083,-4.933376312255859,-14.521064758300675,4.7975921630859375,-0.7299152742526469,-1.9557505866527207,-1.8765791732641328,0.04012673984922403,0.09979831799628866,0.12699794039459358,0.00042673772652520393,0.018304807844503557,0.014787007580133136,-11.24433970451355,-36.04864740371704,-33.65601348876953,-3.6495763712632345,-9.778752933263604,-9.382895866320665,-2.191476583480835,-7.0465087890625,-6.569453239440918,-0.7292523234852795,-1.9323089784142953,-1.8580078430938682,-0.7303150829632872,-1.9786630003275787,-1.89539447194277,-0.2779373116361454,-0.7212798634141153,-0.7002215243231348,0.009620215870559336,0.02584688838154818,0.024787396823001327,-1.389686558180727,-3.6063993170705766,-3.501107621615674,-0.2657694582453252,-0.6886816056599246,-0.6689463039644769,-0.2901054919768082,-0.7540686386170021,-0.7316537041580335
-134.1242218017578,15.909070014953612,22.53477096557617,-2.172050952911377,-6.9888691902160645,-6.859346866607666,4.971595764160156,-0.246293693780899,-2.2428979873657227,0.5833333333333334,0.08516793238037934,-0.9646336181727753,-1.0564627451049438,-0.7291858414686645,-1.9867016138123519,-1.9041983281519779,-0.29618204065571374,-0.7706244853987717,-0.7475220235593,0.5721654760494874,0.17450915795876532,19.822737415823934,38.368892669677734,4.268131256103516,2.331075668334961,-0.7299019778493239,-1.9666291137323324,-1.885817270275755,0.04051014485927898,0.12380693252757147,0.09742212940365767,0.000452798201091911,0.01700741962512167,0.014712525302822277,-11.117121458053589,-35.991007804870605,-33.94590711593628,-3.649509889246619,-9.833145568661662,-9.429086351378775,-2.172050952911377,-6.9888691902160645,-6.642807960510254,-0.7291858414686645,-1.9443764067475742,-1.867040357398914,-0.7303150829632872,-1.9867016138123519,-1.9041983281519779,-0.28401982811822307,-0.7376684393618846,-0.7159366682420993,0.00961798654433316,0.025988289469748804,0.024909984155869817,-1.4200991405911154,-3.6883421968094234,-3.579683341210497,-0.2718515092669796,-0.7048847423828211,-0.6845049736094678,-0.29618204065571374,-0.7706244853987717,-0.7475220235593
-134.1025848388672,15.886689186096191,22.532764434814453,-2.159199476242065,-7.079401969909668,-6.854397773742676,4.313821792602539,1.0012092590332031,-2.384800910949707,0.5916666666666667,0.11295735633900339,-0.9939304760363559,-0.9912158108887983,-0.7282445301658395,-1.9949843677793215,-1.9124584599093846,-0.30225074507376243,-0.7872493551302661,-0.7634591773918782,0.5714473573947821,0.2422459044342719,19.878644810001237,-10.863933563232422,0.5938911437988281,1.542177200317436,-0.7295816593627871,-1.976750705938682,-1.8949008907778488,0.041825184970395536,0.13422014035020816,0.05440178577293569,0.0008733696516951899,0.015440317428581353,0.014234230958546396,-11.013565301895142,-35.862945556640625,-34.1574969291687,-3.6479082968139354,-9.88375352969341,-9.474504453889244,-2.159199476242065,-6.9888691902160645,-6.773905754089356,-0.7282445301658395,-1.9559769296482514,-1.8766699258860504,-0.7303150829632872,-1.9949843677793215,-1.9124584599093846,-0.29009967527957964,-0.7541413619113737,-0.7317275089985814,0.00961116931641071,0.02611644736781208,0.0250285508570296,-1.4504983763978982,-3.7707068095568688,-3.658637544992907,-0.27793706983345995,-0.7211845501298898,-0.7001438896585183,-0.30225074507376243,-0.7872493551302661,-0.7634591773918782
-134.08547973632812,15.852227210998535,22.52646255493164,-2.159214496612549,-7.035030364990234,-6.844538688659668,3.94213342666626,2.4064319133758545,-3.137731075286865,0.6,0.12758450390968035,-0.8886148048263598,-0.921851145925805,-0.7271813259665921,-2.0023894911528743,-1.9201405527920996,-0.3083105894568174,-0.8039359342232066,-0.7794603486651457,0.5663350339380636,0.21111300880199318,19.84176281947118,5.324592590332031,1.1830902099609375,-0.0018024444580611032,-0.7289644709605769,-1.9860332182396063,-1.9035950161590587,0.03029632854178399,0.14329311098348818,0.044270024337262445,0.0012686638458452588,0.013680149505687859,0.013575591155743326,-10.913398027420044,-35.679409980773926,-34.22710371017456,-3.6448223548028844,-9.930166091198032,-9.517975080795294,-2.159199476242065,-6.9888691902160645,-6.773905754089356,-0.7271813259665921,-1.9674276181259054,-1.8857832679990618,-0.7303150829632872,-2.0023894911528743,-1.9201405527920996,-0.29617437920425116,-0.7706916387300371,-0.7475908007999068,0.00960073678924564,0.02623006370326368,0.025141560562928322,-1.4808718960212557,-3.8534581936501855,-3.7379540039995343,-0.284023028858154,-0.737579780280939,-0.7158587502251771,-0.3083105894568174,-0.8039359342232066,-0.7794603486651457
-134.07334899902344,15.810738563537598,22.51300811767578,-2.1889185905456543,-7.005532741546631,-6.833329200744629,3.5461113452911377,3.545957565307617,-3.1149344444274902,0.6083333333333333,0.11258792487082125,-0.7994767192275525,-0.8519760388522553,-0.7262430932593353,-2.0090517971464372,-1.9272403531158684,-0.3143626152339785,-0.8206780325327603,-0.7955206849411113,0.5315420356207942,0.18079625468428862,19.82239318711205,3.539714813232422,1.3451385498046875,-3.5644912719726562,-0.7281500730197865,-1.9943580540437125,-1.9118864331824201,0.015566894023745333,0.1304554306055186,0.023264365920493333,0.0014750894545884536,0.012101220242853528,0.012602502796280775,-10.87086009979248,-35.41744422912598,-34.286527156829834,-3.6407503650989326,-9.971790270218563,-9.559432165912101,-2.159199476242065,-6.9888691902160645,-6.833329200744629,-0.7262430932593353,-1.9786630003275787,-1.89539447194277,-0.729895574238501,-2.0090517971464372,-1.9272403531158684,-0.3022422964794161,-0.7873112891804014,-0.7635231877430938,0.009588470966918438,0.02633080637530613,0.025246476297359096,-1.5112114823970804,-3.936556445902007,-3.817615938715469,-0.2901054919768082,-0.7540686386170021,-0.7316537041580335,-0.3143626152339785,-0.8206780325327603,-0.7955206849411113
-134.0625,15.765731811523438,22.4992733001709,-2.225871324539185,-7.2395219802856445,-6.747371196746826,3.432025671005249,3.897564649581909,-3.4478681087493896,0.6166666666666667,0.09071873767265703,-0.9727713553463992,-0.7088288229591475,-0.7254871037787298,-2.017158225107657,-1.9331472599738613,-0.3204083410988013,-0.8374876844086574,-0.8116302454408935,0.43346437397604914,0.38101075449061955,19.93714861965546,-28.07870864868164,10.314960479736328,-4.434328079223686,-0.7272683789278322,-2.002057098999728,-1.9194369907886384,0.027866123210450452,0.10097854912645689,0.046049414924402635,0.0014883937576711701,0.01186270151233636,0.011513857698687463,-10.90525484085083,-35.34835624694824,-34.138983726501465,-3.6363418946391612,-10.01028549499864,-9.597184953943191,-2.159199476242065,-6.9888691902160645,-6.747371196746826,-0.7254871037787298,-1.9867016138123519,-1.9041983281519779,-0.7291858414686645,-2.017158225107657,-1.9331472599738613,-0.30830286630381465,-0.8039950983387325,-0.7795184959996657,0.009576086394381931,0.02642959912181462,0.025342226850553408,-1.5415143315190734,-4.019975491693662,-3.8975924799983286,-0.29618204065571374,-0.7706244853987717,-0.7475220235593,-0.3204083410988013,-0.8374876844086574,-0.8116302454408935
-134.03269958496094,15.71324634552002,22.494752883911133,-2.196903944015503,-7.292569160461426,-6.728707790374756,5.375237941741943,3.720045566558838,-4.7822041511535645,0.625,0.1346471698235705,-0.963383915170251,-0.6345045424938922,-0.7243650440302001,-2.0251864244007427,-1.938434797827977,-0.3264447164657196,-0.8543642379453302,-0.8277838687561266,0.439735444301684,0.43242158796094654,19.954116754892166,-6.36566162109375,2.2396087646484375,3.47608566284185,-0.7263042194401395,-2.0097540611174063,-1.9262842847238382,0.02807519201292322,0.12795940874238312,0.05893235877988999,0.0014971587470331987,0.01189383650934872,0.01030228540904116,-10.930107831954956,-35.6520562171936,-34.008344650268555,-3.631521097200697,-10.048770305587032,-9.63142142361919,-2.159199476242065,-7.005532741546631,-6.728707790374756,-0.7243650440302001,-1.9949843677793215,-1.9124584599093846,-0.7282445301658395,-2.0251864244007427,-1.938434797827977,-0.31435540146581586,-0.820743048848044,-0.795570865039031,0.009563630665177727,0.026528654434251897,0.02542780489342704,-1.5717770073290793,-4.10371524424022,-3.977854325195155,-0.30225074507376243,-0.7872493551302661,-0.7634591773918782,-0.3264447164657196,-0.8543642379453302,-0.8277838687561266
-133.99392700195312,15.656487464904783,22.495534896850582,-2.2035233974456787,-7.152284622192383,-6.740726947784424,6.310157299041748,3.6682534217834473,-5.6272687911987305,0.6333333333333333,0.14261102291209626,-0.7620985212427769,-0.5915531719417748,-0.723176618839266,-2.031537245411099,-1.9433644075941585,-0.33247118828938016,-0.8712937149904227,-0.8439785721527446,0.4446705794845098,0.31238519630548206,19.867473541073693,16.834144592285156,-1.4422988891601562,-0.7943344116210938,-0.7252906371748246,-2.017064636643762,-1.932465474260793,0.024222062249046904,0.1248084168377557,0.05532059868795543,0.001568938496148535,0.011779156290706253,0.009139064279288258,-10.97443175315857,-35.72493886947632,-33.8946738243103,-3.626453185874123,-10.085323183218811,-9.662327371303965,-2.159214496612549,-7.005532741546631,-6.728707790374756,-0.723176618839266,-2.0023894911528743,-1.9201405527920996,-0.7271813259665921,-2.031537245411099,-1.9433644075941585,-0.3203994901089394,-0.8375519208200755,-0.8116747439912043,0.009550603570418745,0.026626722799121476,0.025503745238299066,-1.601997450544697,-4.1877596041003775,-4.0583737199560215,-0.3083105894568174,-0.8039359342232066,-0.7794603486651457,-0.33247118828938016,-0.8712937149904227,-0.8439785721527446
-133.94683837890625,15.593002319335938,22.506107330322266,-2.202392101287842,-7.133094310760498,-6.75770902633667,6.959746837615967,3.376186847686768,-6.951306819915772,0.6416666666666666,0.15818552496849714,-0.6839400378441516,-0.5539499707220203,-0.7218584061311952,-2.0372367457264673,-1.9479806573501754,-0.33848667500714014,-0.8882706878714767,-0.8602117442973294,0.44771271104471133,0.2773583936359051,19.865884960981788,2.302837371826172,-2.0378494262695312,0.1357555389404297,-0.7242260532077454,-2.024034087558481,-1.938033495172408,0.013764330832216882,0.11004099106061736,0.041473647245136414,0.001759622312707639,0.011221429845232717,0.008183717314438111,-11.017609357833862,-35.82300281524658,-33.807844161987305,-3.6211302660387266,-10.120170437792403,-9.69016747586204,-2.1889185905456543,-7.005532741546631,-6.728707790374756,-0.7218584061311952,-2.0090517971464372,-1.9272403531158684,-0.7262430932593353,-2.0372367457264673,-1.9479806573501754,-0.326434707219004,-0.8544188715497295,-0.8278250231176412,0.009536005780382118,0.026719927534686515,0.025571857763488366,-1.6321735360950198,-4.272094357748648,-4.139125115588206,-0.3143626152339785,-0.8206780325327603,-0.7955206849411113,-0.33848667500714014,-0.8882706878714767,-0.8602117442973294
-133.9025115966797,15.522470474243164,22.51732635498047,-2.1798312664031982,-7.037189483642578,-6.819859981536865,6.636853694915772,3.936063051223755,-7.661026477813721,0.65,0.19480410582110208,-0.530709722146721,-0.5614761484728152,-0.720235038582686,-2.0416593267443566,-1.9526596252541155,-0.34448863366199584,-0.9052845155943463,-0.8764839078411136,0.49541951038554555,0.16854869182767115,19.83548458647557,11.50857925415039,-7.4581146240234375,2.7073001861572266,-0.7230244422724155,-2.030555593478064,-1.9431173496000576,0.016502274672416346,0.09895284269333228,0.03568009701750314,0.0020630975317294255,0.009710970396393404,0.007682720918354137,-11.008522033691406,-35.85465955734253,-33.79437494277954,-3.615122211362077,-10.152777967390321,-9.715586748000288,-2.1798312664031982,-7.037189483642578,-6.728707790374756,-0.720235038582686,-2.017158225107657,-1.9331472599738613,-0.7254871037787298,-2.0416593267443566,-1.9526596252541155,-0.33245991090460747,-0.8713401681620466,-0.8440176676976415,0.009518863939868588,0.026800355599926988,0.025635852545516154,-1.6622995545230372,-4.356700840810233,-4.220088338488208,-0.3204083410988013,-0.8374876844086574,-0.8116302454408935,-0.34448863366199584,-0.9052845155943463,-0.8764839078411136
-133.86856079101562,15.441104888916016,22.5284366607666,-2.1976218223571777,-7.138960361480713,-6.836003303527832,5.370882987976074,4.807881832122803,-8.546600341796875,0.6583333333333333,0.190848358361146,-0.5757649792216553,-0.5229640318041584,-0.7186446355963432,-2.04645736823787,-1.9570176588524835,-0.35047733895863203,-0.9223383269963286,-0.892792388331551,0.46684734532992034,0.21427503763382422,19.922436780872463,-12.212505340576172,-1.9371986389160156,-2.134866714477539,-0.7216559486359381,-2.036415422104107,-1.947891429375782,0.009517365470319348,0.0914627177342138,0.048315595222059096,0.0022792332242117567,0.008350161492221168,0.0073476786210178195,-10.9802725315094,-35.7540979385376,-33.88300704956055,-3.6082797431796902,-10.182077110520535,-9.73945714687891,-2.1798312664031982,-7.037189483642578,-6.728707790374756,-0.7186446355963432,-2.0251864244007427,-1.938434797827977,-0.7243650440302001,-2.04645736823787,-1.9570176588524835,-0.33847371047657354,-0.8883102966795808,-0.8602500962757731,0.009499914937273868,0.026869738926137587,0.025697068450020056,-1.6923685523828678,-4.441551483397904,-4.301250481378865,-0.3264447164657196,-0.8543642379453302,-0.8277838687561266,-0.35047733895863203,-0.9223383269963286,-0.892792388331551
-133.83676147460938,15.353507041931152,22.54092025756836,-2.094038724899292,-6.90777587890625,-6.873941898345947,5.095683574676514,5.235742092132568,-9.245664596557615,0.6666666666666666,0.30736133313292857,-0.28961233021638844,-0.5064224732311491,-0.7160832911535687,-2.048870804323007,-1.9612378461294098,-0.3564446997182451,-0.939412250365687,-0.909136037049296,0.584398515029234,0.054253418437014755,19.760325519229625,27.742137908935547,-4.552631378173828,12.429971694946289,-0.7199995980606119,-2.04115229808856,-1.9524520390360685,0.046509591569827834,0.10347203009421796,0.055453515756801325,0.0027738711118256076,0.00699565890608096,0.007082666906507116,-10.877407312393188,-35.36930465698242,-34.02824115753174,-3.5999979903030592,-10.2057614904428,-9.762260195180342,-2.094038724899292,-6.90777587890625,-6.740726947784424,-0.7160832911535687,-2.031537245411099,-1.9433644075941585,-0.723176618839266,-2.048870804323007,-1.9612378461294098,-0.34447370712707864,-0.9053198991636522,-0.876520529934407,0.009476991791208185,0.026927557276200755,0.025756074654607976,-1.7223685356353933,-4.526599495818261,-4.382602649672035,-0.33247118828938016,-0.8712937149904227,-0.8439785721527446,-0.3564446997182451,-0.939412250365687,-0.909136037049296
-133.82566833496094,15.258684158325195,22.543441772460938,-2.0697667598724365,-6.861791610717773,-6.923524379730225,2.902425765991211,6.635700702667236,-9.02928638458252,0.675,0.3433107026955651,-0.1916405364410334,-0.5014179277670916,-0.7132223686311057,-2.050467808793349,-1.9654163288608022,-0.36238821945683763,-0.9564994821056315,-0.9255145064564694,0.6177320207258052,-0.007133327009236845,19.755937092708972,5.5181121826171875,-5.949897766113281,2.9126358032226562,-0.7180087480189797,-2.0449384107650097,-1.9568624232893974,0.062176460665212846,0.12725145146444963,0.06184133458690511,0.003420431334309982,0.005440892156339903,0.006871808371159806,-10.743650674819946,-35.07881164550781,-34.21103858947754,-3.590043740094899,-10.224692053825049,-9.784312116446987,-2.0697667598724365,-6.861791610717773,-6.75770902633667,-0.7132223686311057,-2.0372367457264673,-1.9479806573501754,-0.7218584061311952,-2.050467808793349,-1.9654163288608022,-0.35045711336057017,-0.922361052586694,-0.8928277167951519,0.009448770243150235,0.026971917406065422,0.025813322766933648,-1.7522855668028507,-4.61180526293347,-4.4641385839757595,-0.33848667500714014,-0.8882706878714767,-0.8602117442973294,-0.36238821945683763,-0.9564994821056315,-0.9255145064564694
-133.82412719726562,15.166860580444336,22.537250518798828,-2.006999969482422,-6.710257530212402,-6.851705551147461,2.0588724613189697,7.140429496765137,-8.113656044006348,0.6833333333333333,0.41685703491785087,0.00959617450460648,-0.3758334615390231,-0.7097485600067902,-2.050387840672477,-1.9685482743736273,-0.36830279079022754,-0.9735860474445688,-0.941919075409583,0.6409826347101065,-0.05534109888196872,19.58688869649615,18.18408966064453,8.61825942993164,7.532014846801758,-0.7155867787940988,-2.047568629754212,-1.9609759466940875,0.07911362901992369,0.1647573421935078,0.04025081763139526,0.004209470448742435,0.0036811551217769624,0.00636307662453403,-10.548258543014526,-34.65597486495972,-34.30503511428833,-3.577933893970494,-10.23784314877106,-9.804879733470438,-2.006999969482422,-6.710257530212402,-6.819859981536865,-0.7097485600067902,-2.0416593267443566,-1.9526596252541155,-0.720235038582686,-2.050467808793349,-1.9685482743736273,-0.35642033651718763,-0.9394241245013124,-0.9091691830176026,0.009414001446029562,0.027000195972409262,0.02586625584721352,-1.7821016825859382,-4.697120622506562,-4.545845915088013,-0.34448863366199584,-0.9052845155943463,-0.8764839078411136,-0.36830279079022754,-0.9735860474445688,-0.941919075409583
-133.83270263671875,15.072986602783203,22.52998352050781,-2.0231175422668457,-6.867588996887207,-6.791106700897217,0.8484716415405273,7.374005317687988,-8.162528038024902,0.6916666666666667,0.4109691844956438,-0.09858434736547217,-0.2632143467811501,-0.7063238168026599,-2.051209376900523,-1.9707417272634702,-0.3741888225969164,-0.9906794589187398,-0.9583419231367786,0.5699452629922529,0.08195518262688432,19.661109540970422,-18.879776000976562,7.271862030029297,-1.9341087341308594,-0.7128045344380934,-2.0494786397854456,-1.9645923670959586,0.07531105252667776,0.15462692691872226,0.04875484348040112,0.004908418618694247,0.0018906413096051171,0.005540120976562953,-10.391544818878174,-34.486374378204346,-34.27628183364868,-3.5640226721904673,-10.247393198927227,-9.822961835479793,-2.006999969482422,-6.710257530212402,-6.791106700897217,-0.7063238168026599,-2.04645736823787,-1.9570176588524835,-0.7186446355963432,-2.051209376900523,-1.9707417272634702,-0.3623603743041718,-0.9565031131661911,-0.9255407860767356,0.009373193331121394,0.027014715763082044,0.025912048307930802,-1.8118018715208588,-4.7825155658309555,-4.627703930383678,-0.35047733895863203,-0.9223383269963286,-0.892792388331551,-0.3741888225969164,-0.9906794589187398,-0.9583419231367786
-133.83212280273438,14.979127883911133,22.52213287353516,-2.077324151992798,-6.783695220947266,-6.814990520477295,1.9982175827026367,7.447006702423096,-8.15151309967041,0.7,0.3674336794855373,0.03448270270996989,-0.23600252991525217,-0.7032618694736137,-2.0509220210446064,-1.972708415012764,-0.38004933817586317,-1.0077704757607782,-0.9747811599285516,0.5250695749792155,-0.01839098449056709,19.63353581916773,10.067253112792969,-2.866058349609375,-6.504793167114258,-0.7097279812135476,-2.0503715703467926,-1.9677305183280147,0.03727641433612322,0.07887291358942329,0.05164903090246848,0.00514781671472929,0.0009037063965279184,0.004528405480344192,-10.271247148513794,-34.1311092376709,-34.255269050598145,-3.5486399060677383,-10.251857851733963,-9.838652591640074,-2.006999969482422,-6.710257530212402,-6.791106700897217,-0.7032618694736137,-2.048870804323007,-1.9612378461294098,-0.7160832911535687,-2.051209376900523,-1.972708415012764,-0.36827477414761794,-0.9735895429190811,-0.9419385403961357,0.00933031750772971,0.027021097849230076,0.025949287652279083,-1.8413738707380898,-4.867947714595405,-4.7096927019806785,-0.3564446997182451,-0.939412250365687,-0.909136037049296,-0.38004933817586317,-1.0077704757607782,-0.9747811599285516
-133.83750915527344,14.884150505065918,22.51729393005371,-2.053386926651001,-6.569777488708496,-6.82428503036499,1.1534347534179688,7.2642998695373535,-8.452481269836426,0.7083333333333334,0.4021414939467651,0.29446263823302665,-0.19452991675682085,-0.6999106903573906,-2.048468165725998,-1.9743294976524042,-0.38588192726217474,-1.0248410438084947,-0.9912339057423216,0.5552767217472482,-0.1725812011821525,19.485284170949708,25.670127868652344,-1.1153411865234375,2.872467041015625,-0.7064934610543121,-2.0502910426273906,-1.9703488486326137,0.03018760682029514,0.12364041893487268,0.050916676177892695,0.005236379945437828,0.0010729594504052006,0.003504971208973171,-10.230595350265503,-33.793110847473145,-34.20561218261719,-3.5324673052715605,-10.251455213136953,-9.851744243163068,-2.006999969482422,-6.569777488708496,-6.791106700897217,-0.6999106903573906,-2.048468165725998,-1.9654163288608022,-0.7132223686311057,-2.051209376900523,-1.9743294976524042,-0.3741622196564039,-0.9906753016076426,-0.9583581141347409,0.00928668947850252,0.027016532823574742,0.025978254986863174,-1.8708110982820194,-4.953376508038213,-4.7917905706737045,-0.36238821945683763,-0.9564994821056315,-0.9255145064564694,-0.38588192726217474,-1.0248410438084947,-0.9912339057423216
-133.8517608642578,14.796677589416504,22.50642204284668,-2.075719356536865,-6.88316535949707,-6.653447151184082,0.3055906593799591,7.16764497756958,-7.351951599121094,0.7166666666666667,0.39040913539005917,0.027402524539760442,0.025105314273873525,-0.6966572808958068,-2.0482398113548332,-1.974120286700122,-0.39168740460297313,-1.0419097089031184,-1.0076849081314894,0.41590026815989517,0.1404923208963301,19.59581749684693,-37.606544494628906,20.500545501708984,-2.6798915863036576,-0.7031804435072522,-2.049845443139687,-1.9720896402004775,0.03144456815916865,0.12837787769303896,0.07780363465021795,0.0051543796020919715,0.0013953921373349226,0.002443435598032727,-10.236547946929932,-33.81448459625244,-33.935534954071045,-3.515902217536261,-10.249227215698436,-9.860448201002388,-2.006999969482422,-6.569777488708496,-6.653447151184082,-0.6966572808958068,-2.0482398113548332,-1.9685482743736273,-0.7097485600067902,-2.051209376900523,-1.9743294976524042,-0.380022056685631,-1.00775734696714,-0.9747921944697449,0.009243740889746459,0.027007261371685774,0.02599766329421029,-1.900110283428155,-5.0387867348357,-4.8739609723487245,-0.36830279079022754,-0.9735860474445688,-0.941919075409583,-0.39168740460297313,-1.0419097089031184,-1.0076849081314894
-133.8410186767578,14.71372890472412,22.499069213867188,-2.2201266288757324,-7.219577789306641,-6.5472941398620605,3.1637167930603027,6.477712631225586,-7.207014083862305,0.725,0.2578527885596471,-0.25777730865437043,0.17712732508231,-0.6945085076578097,-2.0503879555936195,-1.9726442256577694,-0.39747497550012156,-1.058996275199732,-1.0241236100119708,0.19568983665875497,0.3823675873081265,19.796682470869374,-40.36949157714844,12.738361358642578,-17.328872680664116,-0.7001324330374561,-2.049845466123916,-1.9729088304573061,0.07601202628411174,0.23442941605953194,0.12146768117451352,0.004792728717423349,0.0013954033058759658,0.0014398298347703194,-10.449674606323242,-34.32380485534668,-33.631123542785645,-3.5006621651872805,-10.24922733061958,-9.86454415228653,-2.0231175422668457,-6.569777488708496,-6.5472941398620605,-0.6945085076578097,-2.0482398113548332,-1.9707417272634702,-0.7063238168026599,-2.051209376900523,-1.9743294976524042,-0.38585649362760976,-1.0248393925181727,-0.9912331013902225,0.009203897169344617,0.027001561628542368,0.026004535603686704,-1.929282468138049,-5.124196962590863,-4.956165506951113,-0.3741888225969164,-0.9906794589187398,-0.9583419231367786,-0.39747497550012156,-1.058996275199732,-1.0241236100119708
-133.79867553710938,14.643662452697754,22.498435974121094,-2.1818559169769287,-7.003314018249512,-6.494056701660156,6.786518096923828,4.859098434448242,-6.666451454162598,0.7333333333333333,0.30870317216447996,0.010112937081443008,0.2743210441075643,-0.6919359812231057,-2.0503036811179407,-1.970358216956873,-0.40324110867698076,-1.076082139209048,-1.0405432618199448,0.218931396881688,0.263775232321265,19.60092266312567,25.95165252685547,6.388492584228516,4.592485427856445,-0.6972548659215453,-2.0496643269673998,-1.9728321283959864,0.07425739955510632,0.2425558169392039,0.15088253739813556,0.004453302738399309,0.0012221142487803462,0.0015868456728037013,-10.608412981033325,-34.459529876708984,-33.334073543548584,-3.4862743296077263,-10.248321634836998,-9.864160641979932,-2.053386926651001,-6.569777488708496,-6.494056701660156,-0.6919359812231057,-2.0482398113548332,-1.970358216956873,-0.7032618694736137,-2.0509220210446064,-1.9743294976524042,-0.3916669508436227,-1.0419199285762342,-1.0076733691268558,0.00916692587858969,0.027002461861253355,0.025996123683627387,-1.9583347542181133,-5.209599642881171,-5.038366845634279,-0.38004933817586317,-1.0077704757607782,-0.9747811599285516,-0.40324110867698076,-1.076082139209048,-1.0405432618199448
-133.75099182128906,14.58090877532959,22.49630355834961,-2.212672472000122,-7.061450958251953,-6.501102924346924,7.436351299285889,4.35347318649292,-5.885140419006348,0.7416666666666667,0.29023029688453583,0.0016441021578588177,0.3102883732887136,-0.6895173954157346,-2.050289980266625,-1.9677724805128003,-0.4089870869721119,-1.0931678890446033,-1.0569413658242182,0.18201584631624576,0.27787813911854004,19.65449096239041,-6.976432800292969,-0.8455467224121094,-3.697986602783203,-0.6945059711099695,-2.0495379188118035,-1.9718449414959938,0.07858800470303877,0.24338220008169037,0.13861944312543126,0.004041344635375849,0.0010844359707093648,0.002774182698572569,-10.74376130104065,-34.73728561401367,-33.02018594741821,-3.4725298555498476,-10.247689594059016,-9.859224707479969,-2.053386926651001,-6.569777488708496,-6.494056701660156,-0.6895173954157346,-2.0482398113548332,-1.9677724805128003,-0.6999106903573906,-2.0503879555936195,-1.9743294976524042,-0.3974545006028724,-1.0589994112329992,-1.0241054103059888,0.009133313344380797,0.0270099818203039,0.025973890603644748,-1.987272503014362,-5.294997056164996,-5.120527051529944,-0.38588192726217474,-1.0248410438084947,-0.9912339057423216,-0.4089870869721119,-1.0931678890446033,-1.0569413658242182
-133.68858337402344,14.525668144226074,22.490873336791992,-2.201601266860962,-7.105422019958496,-6.572399139404297,9.337491035461426,4.021358489990234,-5.004061698913574,0.75,0.31364033635181743,0.007593425270155052,0.28212043483924454,-0.6869037259461361,-2.050226701722707,-1.9654214768891398,-0.4147112846883297,-1.1102531115589591,-1.0733198781316275,0.21410283041528438,0.25689552902139634,19.730618193075177,-5.276527404785156,-8.555545806884766,1.3285446166992188,-0.6919045782277186,-2.049889626011145,-1.970063337343341,0.05918038201924003,0.12436596320806809,0.06454447001202754,0.00387546070151599,0.0009240624927038656,0.0035355929508935446,-10.89197564125061,-35.27293014526367,-32.76830005645752,-3.459522891138593,-10.249448130055725,-9.850316686716704,-2.075719356536865,-6.88316535949707,-6.494056701660156,-0.6869037259461361,-2.0482398113548332,-1.9654214768891398,-0.6966572808958068,-2.0503879555936195,-1.974120286700122,-0.4032203720881034,-1.0760818247830923,-1.04052260478385,0.009101035983774557,0.02701508810020106,0.02594454967243804,-2.016101860440517,-5.380409123915461,-5.20261302391925,-0.39168740460297313,-1.0419097089031184,-1.0076849081314894,-0.4147112846883297,-1.1102531115589591,-1.0733198781316275
-133.61502075195312,14.47205638885498,22.47442626953125,-2.2090981006622314,-7.079677581787109,-6.6071553230285645,10.971912384033203,4.789427757263184,-3.9563372135162354,0.7583333333333333,0.31828049678626025,0.08279947840268687,0.2908389566302043,-0.6842513884729173,-2.0495367060693512,-1.9629978189172215,-0.42041337959227065,-1.127332584109537,-1.089678193289271,0.2213253779153268,0.19989489374360242,19.7381170244704,3.0893325805664062,-4.170742034912109,-0.8996200561523438,-0.6894233997431407,-2.0501490049540485,-1.9678388437867607,0.01459153011944093,0.07966916057126193,0.04780073967953421,0.004039761131739667,0.0003470745117084429,0.0038315311785121937,-11.025354385375977,-35.46944236755371,-32.722008228302,-3.4471169987157033,-10.250745024770243,-9.839194218933804,-2.1818559169769287,-7.003314018249512,-6.494056701660156,-0.6842513884729173,-2.0495367060693512,-1.9629978189172215,-0.6945085076578097,-2.0503879555936195,-1.9726442256577694,-0.408965567085963,-1.093166399824376,-1.0569212618154065,0.009067376468967766,0.027012743503590474,0.025912624473946676,-2.044827835429815,-5.465831999121879,-5.2846063090770325,-0.39747497550012156,-1.058996275199732,-1.0241236100119708,-0.42041337959227065,-1.127332584109537,-1.089678193289271
-133.53091430664062,14.416644096374512,22.44816780090332,-2.21277117729187,-7.144959926605225,-6.6376142501831055,12.560173034667969,5.77711296081543,-3.361702680587769,0.7666666666666666,0.3266683643379995,0.06670237145597468,0.3038526246647413,-0.681529152103434,-2.0489808529738847,-1.9604657137116819,-0.4260927891931326,-1.144407424550986,-1.1060154075702016,0.2216954237984442,0.20928453508427472,19.80558816141018,-7.833881378173828,-3.655071258544922,-0.4407691955566406,-0.6868275286322656,-2.0498675844301015,-1.9654031413975435,0.012975452135217311,0.052644146668061394,0.06361666744879212,0.004124523280873222,0.000590198473149204,0.003883640245351546,-11.017998933792114,-35.394824504852295,-32.81232833862305,-3.434137643161328,-10.249337922150508,-9.827015706987718,-2.1818559169769287,-7.003314018249512,-6.494056701660156,-0.681529152103434,-2.0489808529738847,-1.9604657137116819,-0.6919359812231057,-2.0503036811179407,-1.970358216956873,-0.41468912982456513,-1.1102486296946268,-1.0732996213270525,0.009033015195964373,0.027008265206377308,0.025880264250105256,-2.0734456491228257,-5.551243148473134,-5.366498106635262,-0.40324110867698076,-1.076082139209048,-1.0405432618199448,-0.4260927891931326,-1.144407424550986,-1.1060154075702016
-133.43714904785156,14.357264518737791,22.42964553833008,-2.1600236892700195,-6.8500800132751465,-6.525475025177002,13.456978797912598,5.431576728820801,-4.307917594909668,0.775,0.3908928567381311,0.4082217326309818,0.45822200668179214,-0.6782717116306163,-2.04557900520196,-1.9566471969893335,-0.43174505345672104,-1.1614539162610025,-1.122320800878446,0.2450873201695563,0.070326653149415,19.51083033549381,35.385589599609375,13.456707000732422,6.32969856262207,-0.6840946747137677,-2.0489226492469053,-1.9626609374040356,0.02238414951683625,0.11516806026018456,0.05630146600381817,0.004410499778127805,0.0019449007637627703,0.0043256797498253,-10.996166706085205,-35.24159049987793,-32.84374666213989,-3.4204733735688384,-10.244613246234527,-9.813304687020178,-2.1600236892700195,-6.8500800132751465,-6.501102924346924,-0.6782717116306163,-2.04557900520196,-1.9566471969893335,-0.6895173954157346,-2.050289980266625,-1.9677724805128003,-0.42038991878051324,-1.1273229851050177,-1.0896551291387528,0.008996302341395446,0.02699421139186082,0.02584441955325762,-2.101949593902566,-5.636614925525088,-5.448275645693764,-0.4089870869721119,-1.0931678890446033,-1.0569413658242182,-0.43174505345672104,-1.1614539162610025,-1.122320800878446
-133.3539276123047,14.299527168273926,22.407459259033203,-2.244240522384644,-6.888842105865479,-6.482351303100586,12.326200485229492,5.615269660949707,-3.908067464828491,0.7833333333333333,0.31825322048472326,0.41334985956851433,0.541722102233285,-0.6756196014599103,-2.0421344230388887,-1.9521328461373895,-0.4373752168022203,-1.1784717031196599,-1.1385885745962576,0.14343684375901533,0.07614482252527259,19.530456128007746,-4.65145111083995,5.174846649169922,-10.106019973754936,-0.6813151159226027,-2.047291537801358,-1.959533010528953,0.030207318475002777,0.1344954329734271,0.06224483629633779,0.004516670915908569,0.0033925784485516115,0.005259259008618828,-11.027734756469727,-35.068981647491455,-32.824995040893555,-3.4065755796130137,-10.23645768900679,-9.797665052644765,-2.1600236892700195,-6.8500800132751465,-6.482351303100586,-0.6756196014599103,-2.0421344230388887,-1.9521328461373895,-0.6869037259461361,-2.050226701722707,-1.9654214768891398,-0.42606754474653485,-1.144383747920029,-1.1059845708931608,0.008958688741334955,0.026967677055916378,0.025801039331146275,-2.130337723732674,-5.721918739600145,-5.529922854465804,-0.4147112846883297,-1.1102531115589591,-1.0733198781316275,-0.4373752168022203,-1.1784717031196599,-1.1385885745962576
-133.25070190429688,14.236873626708984,22.395158767700195,-2.2901735305786133,-6.84035587310791,-6.445667743682861,14.399006843566896,5.163280010223389,-5.109451770782471,0.7916666666666666,0.28482896599617824,0.5050778033514964,0.6175794376130677,-0.6732460267432755,-2.037925441344293,-1.9469863508239473,-0.4429856003584143,-1.1954544151308624,-1.1548134608531238,0.08768914858496021,0.027669105555448967,19.483341768318574,5.81834793090831,4.402027130126953,-5.511960983276314,-0.6785835760820307,-2.0448312857256754,-1.955845985315915,0.048028659864622444,0.14141286918292606,0.08134909033596122,0.004420756534126577,0.004870388288850888,0.006430650829216561,-11.116307020187378,-34.80391550064087,-32.69826364517212,-3.3929178804101534,-10.224156428628378,-9.779229926579575,-2.1600236892700195,-6.84035587310791,-6.445667743682861,-0.6732460267432755,-2.037925441344293,-1.9469863508239473,-0.6842513884729173,-2.0495367060693512,-1.9629978189172215,-0.43172240788055183,-1.1614240086344094,-1.12228328743746,0.008921897131653457,0.02692806485827852,0.02574787398422054,-2.158612039402759,-5.8071200431720476,-5.6114164371873,-0.42041337959227065,-1.127332584109537,-1.089678193289271,-0.4429856003584143,-1.1954544151308624,-1.1548134608531238
