PacketCounter,SampleTimeFine,Euler_X,Euler_Y,Euler_Z,Acc_X,Acc_Y,Acc_Z,Gyr_X,Gyr_Y,Gyr_Z,
0, 3355245473, -128.57989501953125, 6.1916351318359375, 23.613176345825195, 0, 0, 0, 0, 0, 0, 
1, 3355253806, -128.631103515625, 6.14978551864624, 23.592126846313477, -1.2137255668640137, -7.851766586303711, -6.260519027709961, -4.223659038543701, 4.070652961730957, -2.9876441955566406, 
2, 3355262139, -128.67689514160156, 6.114068984985352, 23.572452545166016, -1.2413744926452637, -7.847721099853516, -6.23968505859375, -3.503732919692993, 3.453465223312378, -2.491560935974121, 
3, 3355270472, -128.71617126464844, 6.082874774932861, 23.558223724365234, -1.2877233028411865, -7.956373691558838, -6.211028575897217, -2.8816657066345215, 2.64041805267334, -2.4897677898406982, 
4, 3355278805, -128.7378692626953, 6.056151866912842, 23.55096435546875, -1.3377357721328735, -8.102874755859375, -6.184248447418213, -0.7705786228179932, 1.6279511451721191, -2.5694150924682617, 
5, 3355287138, -128.74232482910156, 6.037181854248047, 23.55603790283203, -1.4015681743621826, -8.151350021362305, -6.141932010650635, 1.0502476692199707, -0.0751265436410904, -2.7857272624969482, 
6, 3355295471, -128.72251892089844, 6.0262770652771, 23.56700325012207, -1.3171911239624023, -7.916676044464111, -6.225522994995117, 3.975726366043091, -1.2532533407211304, -2.4516921043395996, 
7, 3355303804, -128.70083618164062, 6.021411895751953, 23.578638076782227, -1.2992421388626099, -7.765353679656982, -6.255655288696289, 4.106563568115234, -1.7446879148483276, -1.953392744064331, 
8, 3355312137, -128.6832733154297, 6.017604827880859, 23.59119415283203, -1.2183932065963745, -7.7906174659729, -6.310563087463379, 3.6833655834198, -1.9344638586044312, -1.9089523553848267, 
9, 3355320470, -128.66693115234375, 6.014177322387695, 23.601545333862305, -1.1834735870361328, -7.703887462615967, -6.3222246170043945, 3.479578971862793, -1.7335971593856812, -1.7238638401031494, 
10, 3355328803, -128.66551208496094, 6.00821590423584, 23.615665435791016, -1.2087754011154175, -7.67012357711792, -6.264492988586426, 1.731868028640747, -1.9210673570632935, -2.22820782661438, 
11, 3355337136, -128.67413330078125, 6.002592086791992, 23.631515502929688, -1.1792149543762207, -7.850622653961182, -6.343366622924805, 0.41265809535980225, -2.0800294876098633, -2.33906626701355, 
12, 3355345469, -128.67738342285156, 5.997906684875488, 23.64501190185547, -1.0749107599258423, -7.821175575256348, -6.4540605545043945, 1.177909016609192, -1.9552112817764282, -2.063405990600586, 
13, 3355353802, -128.6867218017578, 6.000918865203857, 23.646455764770508, -0.9794602394104004, -7.336477756500244, -6.479116439819336, 0.5085321664810181, -1.3860886096954346, -0.457111656665802, 
14, 3355362135, -128.73226928710938, 6.005189418792725, 23.63286590576172, -0.9609701633453369, -7.18665885925293, -6.359437942504883, -3.5580220222473145, -0.1028667688369751, 0.7977681159973145, 
15, 3355370468, -128.8089599609375, 6.011875152587891, 23.613101959228516, -1.0340313911437988, -7.756580829620361, -6.3699140548706055, -7.305769443511963, 0.3103804886341095, 1.472267985343933, 
16, 3355378801, -128.86265563964844, 6.010174751281738, 23.60552406311035, -1.1732810735702515, -8.143952369689941, -6.220160484313965, -4.606848239898682, -0.215799942612648, -0.21031849086284637, 
17, 3355387134, -128.9031982421875, 6.015664100646973, 23.608360290527344, -1.235815167427063, -7.984647750854492, -6.243569850921631, -3.251009702682495, -1.7018353939056396, -0.3284001052379608, 
18, 3355395467, -128.93038940429688, 6.029234409332275, 23.616350173950195, -1.2132017612457275, -7.92890739440918, -6.2885942459106445, -1.6276309490203857, -2.812955379486084, 0.049576353281736374, 
19, 3355403800, -128.9474639892578, 6.043575286865234, 23.63148307800293, -1.1138454675674438, -7.731665134429932, -6.301661014556885, -0.5916376113891602, -3.512249708175659, -0.4273991584777832, 
20, 3355412133, -128.97254943847656, 6.050034523010254, 23.640108108520508, -1.1262874603271484, -7.709286689758301, -6.623496055603027, -1.3795700073242188, -2.335467576980591, -0.6630629301071167, 
21, 3355420466, -129.00245666503906, 6.0550971031188965, 23.646095275878906, -1.0857658386230469, -7.66073751449585, -6.352797985076904, -2.017223596572876, -1.9634337425231934, -0.6079027056694031, 
22, 3355428799, -129.0444793701172, 6.066082000732422, 23.650697708129883, -0.8532226085662842, -7.082797050476074, -6.305753707885742, -3.3634049892425537, -2.304307699203491, 0.05790097638964653, 
23, 3355437132, -129.1205291748047, 6.081912517547607, 23.649309158325195, -0.9433226585388184, -7.736449718475342, -6.505887985229492, -7.459480285644531, -2.0938100814819336, 0.9486616253852844, 
24, 3355445465, -129.17727661132812, 6.085851192474365, 23.644277572631836, -0.8893718123435974, -7.994966506958008, -6.565035343170166, -5.006392002105713, -0.8825768232345581, 0.12476693093776703, 
25, 3355453798, -129.228515625, 6.072957992553711, 23.630931854248047, -0.849425196647644, -7.7991414070129395, -6.431828022003174, -4.329318523406982, 1.1867973804473877, -0.8216791152954102, 
26, 3355462131, -129.2831268310547, 6.055799961090088, 23.626895904541016, -0.7980586886405945, -7.394927501678467, -6.442758560180664, -4.763030529022217, 0.628112256526947, -1.9098869562149048, 
27, 3355470464, -129.36476135253906, 6.038697719573975, 23.61568260192871, -0.8335126638412476, -7.619470119476318, -6.555901050567627, -8.00674057006836, 1.3087080717086792, -1.3698363304138184, 
28, 3355478797, -129.4420623779297, 6.012216567993164, 23.59976577758789, -0.9174637794494629, -7.627427577972412, -6.6327128410339355, -7.330078125, 2.4357218742370605, -1.8677903413772583, 
29, 3355487130, -129.52816772460938, 5.986974239349365, 23.56966209411621, -0.826913595199585, -7.237070560455322, -6.668267726898193, -8.310744285583496, 3.6730175018310547, -0.6844124794006348, 
30, 3355495463, -129.63363647460938, 5.961929798126221, 23.52458381652832, -0.9031147956848145, -7.042884826660156, -6.524572372436523, -10.347383499145508, 5.011181831359863, 0.49493110179901123, 
31, 3355503796, -129.7506103515625, 5.939212322235107, 23.47503089904785, -1.1144226789474487, -7.28940486907959, -6.499817371368408, -11.770740509033203, 5.266427993774414, 1.04958176612854, 
32, 3355512129, -129.86788940429688, 5.916464805603027, 23.42874526977539, -1.3254796266555786, -7.395708084106445, -6.366746425628662, -11.753811836242676, 4.938386917114258, 0.8222811222076416, 
33, 3355520462, -129.9835662841797, 5.895014762878418, 23.387100219726562, -1.384106993675232, -7.434460163116455, -6.304447174072266, -11.718233108520508, 4.439344882965088, 0.5871936678886414, 
34, 3355528795, -130.0922393798828, 5.865060806274414, 23.356624603271484, -1.460868239402771, -7.606526851654053, -6.365149021148682, -10.915788650512695, 4.046242713928223, -1.0292569398880005, 
35, 3355537128, -130.19129943847656, 5.825400352478027, 23.347896575927734, -1.4993821382522583, -7.60943603515625, -6.2421040534973145, -10.133709907531738, 2.8387110233306885, -3.598031759262085, 
36, 3355545461, -130.2877197265625, 5.787849426269531, 23.34970474243164, -1.5130808353424072, -7.572558403015137, -6.229658126831055, -9.842195510864258, 1.6968538761138916, -4.20040225982666, 
37, 3355553794, -130.38272094726562, 5.742751598358154, 23.371417999267578, -1.4936108589172363, -7.608890056610107, -6.16510534286499, -10.014513969421387, 0.5018341541290283, -6.43361759185791, 
38, 3355562127, -130.48988342285156, 5.698283672332764, 23.40565299987793, -1.4241256713867188, -7.796440124511719, -6.360846519470215, -11.520195960998535, -0.6978983879089355, -7.339235782623291, 
39, 3355570460, -130.5982666015625, 5.643668174743652, 23.45499610900879, -1.2620404958724976, -7.346230506896973, -6.515037536621094, -11.945942878723145, -1.2428284883499146, -9.441075325012207, 
40, 3355578793, -130.74234008789062, 5.589057445526123, 23.502851486206055, -1.127576470375061, -7.383009433746338, -6.688869953155518, -16.103315353393555, -1.1043580770492554, -9.322124481201172, 
41, 3355587126, -130.89710998535156, 5.526214122772217, 23.559741973876953, -0.9470572471618652, -7.243363380432129, -6.799106121063232, -17.586280822753906, -1.237372875213623, -10.779499053955078, 
42, 3355595459, -131.07896423339844, 5.466834545135498, 23.610334396362305, -0.9252126812934875, -7.613250732421875, -6.775306224822998, -20.659120559692383, -0.9310011267662048, -9.972882270812988, 
43, 3355603792, -131.2789764404297, 5.40594482421875, 23.673324584960938, -0.8185967803001404, -7.639491558074951, -6.712140083312988, -23.071508407592773, -1.8781263828277588, -11.08411693572998, 
44, 3355612125, -131.5047149658203, 5.354132652282715, 23.740337371826172, -0.8308289647102356, -8.12979793548584, -6.829153537750244, -26.09368324279785, -2.934509038925171, -10.58625316619873, 
45, 3355620458, -131.69989013671875, 5.304841041564941, 23.81048011779785, -0.7431395649909973, -8.098124504089355, -6.958954334259033, -22.554855346679688, -3.363227367401123, -10.617362022399902, 
46, 3355628791, -131.8776092529297, 5.255606174468994, 23.880767822265625, -0.6379945874214172, -7.463569641113281, -6.7995171546936035, -20.3552303314209, -3.3665571212768555, -10.632268905639648, 
47, 3355637124, -132.06898498535156, 5.221685409545898, 23.939035415649414, -0.6948999762535095, -7.339977264404297, -6.85258150100708, -21.95684242248535, -3.4800798892974854, -8.31169605255127, 
48, 3355645457, -132.2665252685547, 5.199244499206543, 23.990694046020508, -0.7532477378845215, -7.509959697723389, -6.883394241333008, -22.523813247680664, -3.8113744258880615, -6.768334865570068, 
49, 3355653790, -132.44561767578125, 5.181639671325684, 24.041553497314453, -0.7878863215446472, -7.450761318206787, -6.859950542449951, -20.39434051513672, -4.093770980834961, -6.28655481338501, 
50, 3355662123, -132.6206512451172, 5.171392917633057, 24.086313247680664, -0.8862115740776062, -7.384950637817383, -6.905022144317627, -19.744369506835938, -4.153721332550049, -5.14755392074585, 
51, 3355670456, -132.789306640625, 5.1659650802612305, 24.123058319091797, -0.9561355113983154, -7.265488147735596, -7.039015293121338, -18.98868179321289, -3.812039613723755, -4.087982177734375, 
52, 3355678789, -132.9566650390625, 5.165143013000488, 24.143903732299805, -1.0249662399291992, -7.3494873046875, -6.942837715148926, -18.563922882080078, -2.803581476211548, -2.392267942428589, 
53, 3355687122, -133.1109161376953, 5.16916561126709, 24.149425506591797, -1.066002368927002, -7.643203258514404, -7.125186920166016, -16.92266082763672, -1.836540937423706, -0.7286994457244873, 
54, 3355695455, -133.24595642089844, 5.174278736114502, 24.143239974975586, -1.1119319200515747, -7.868178367614746, -7.097489356994629, -14.387286186218262, -0.9234445691108704, 0.3287971615791321, 
55, 3355703788, -133.3592071533203, 5.181672096252441, 24.134075164794922, -1.0733386278152466, -7.977644443511963, -7.0519185066223145, -11.844025611877441, -0.837688148021698, 0.7663652896881104, 
56, 3355712121, -133.445556640625, 5.191091537475586, 24.124988555908203, -1.0762885808944702, -8.125563621520996, -7.157106876373291, -8.51937198638916, -1.0297435522079468, 0.9406700134277344, 
57, 3355720454, -133.4971923828125, 5.2036614418029785, 24.111907958984375, -1.0777454376220703, -7.959884166717529, -7.181775093078613, -4.4045729637146, -0.9294381737709045, 1.5404529571533203, 
58, 3355728787, -133.52452087402344, 5.218103408813477, 24.08368682861328, -1.040932536125183, -7.739747524261475, -7.192861557006836, -1.2293809652328491, 0.21094605326652527, 2.9500555992126465, 
59, 3355737120, -133.5346221923828, 5.2357611656188965, 24.042837142944336, -1.0275635719299316, -7.674574375152588, -7.167771816253662, 0.883934497833252, 1.0550631284713745, 4.2690606117248535, 
60, 3355745453, -133.52481079101562, 5.259915351867676, 23.99379539489746, -1.1058002710342407, -7.779918193817139, -7.0680718421936035, 3.455641746520996, 1.2138842344284058, 5.510697841644287, 
61, 3355753786, -133.4899139404297, 5.287745475769043, 23.941028594970703, -1.1050244569778442, -7.807089328765869, -7.100447654724121, 6.4171342849731445, 1.2470803260803223, 6.132662773132324, 
62, 3355762119, -133.44505310058594, 5.324285507202148, 23.89104461669922, -1.0902997255325317, -7.629342079162598, -6.92078971862793, 7.6745758056640625, 0.27718445658683777, 6.661558628082275, 
63, 3355770452, -133.39869689941406, 5.3714704513549805, 23.852296829223633, -1.1262937784194946, -7.691953659057617, -6.784786701202393, 7.64634895324707, -1.5562443733215332, 6.664402008056641, 
64, 3355778785, -133.3330841064453, 5.4260334968566895, 23.830156326293945, -1.1536672115325928, -7.896458625793457, -6.972016334533691, 9.859880447387695, -3.6105828285217285, 5.948663234710693, 
65, 3355787118, -133.22605895996094, 5.479233741760254, 23.815937042236328, -1.13643217086792, -7.495482444763184, -6.980806827545166, 14.652665138244629, -4.165541648864746, 5.181414604187012, 
66, 3355795451, -133.11306762695312, 5.532299041748047, 23.80241584777832, -1.1383557319641113, -7.209240913391113, -6.933539867401123, 15.449650764465332, -4.21536111831665, 5.120529651641846, 
67, 3355803784, -132.9978485107422, 5.581912517547607, 23.782228469848633, -1.0967203378677368, -7.393860340118408, -7.020776748657227, 15.710736274719238, -3.329133987426758, 5.365786075592041, 
68, 3355812117, -132.8849639892578, 5.617289066314697, 23.75728988647461, -1.0901415348052979, -7.266616344451904, -6.9964752197265625, 15.567655563354492, -1.7497599124908447, 4.505044937133789, 
69, 3355820450, -132.7754669189453, 5.638103485107422, 23.71726417541504, -1.0333484411239624, -7.1536102294921875, -7.171081066131592, 15.258415222167969, 0.7819642424583435, 4.450896739959717, 
70, 3355828783, -132.6614227294922, 5.645506858825684, 23.65441131591797, -0.8889299035072327, -7.052821636199951, -7.215594291687012, 16.163572311401367, 3.875345230102539, 5.114382743835449, 
71, 3355837116, -132.56500244140625, 5.644811630249023, 23.568635940551758, -0.8339797854423523, -6.784129619598389, -7.118781566619873, 14.233448028564453, 6.569283485412598, 6.24329137802124, 
72, 3355845449, -132.5097198486328, 5.637571811676025, 23.471874237060547, -0.8784814476966858, -6.9921746253967285, -6.722509860992432, 9.510248184204102, 8.065656661987305, 6.540584087371826, 
73, 3355853782, -132.46450805664062, 5.6424689292907715, 23.387420654296875, -0.9275694489479065, -7.216808795928955, -6.628678798675537, 8.068703651428223, 6.015439510345459, 6.61468505859375, 
74, 3355862115, -132.41531372070312, 5.642155647277832, 23.330774307250977, -0.8656966686248779, -7.335291385650635, -6.624519348144531, 8.311448097229004, 3.9804649353027344, 3.906311511993408, 
75, 3355870448, -132.3527374267578, 5.638370037078857, 23.286224365234375, -1.0241609811782837, -7.225046634674072, -6.756493091583252, 9.683053016662598, 3.209515333175659, 2.619875431060791, 
76, 3355878781, -132.29766845703125, 5.623844623565674, 23.24470329284668, -1.0693278312683105, -6.9561285972595215, -6.712141990661621, 8.837321281433105, 3.8017160892486572, 1.4218207597732544, 
77, 3355887114, -132.27093505859375, 5.601158618927002, 23.204099655151367, -0.9995796084403992, -6.896876811981201, -6.620192527770996, 5.331615447998047, 4.393494606018066, 0.6166754961013794, 
78, 3355895447, -132.26976013183594, 5.570102214813232, 23.170249938964844, -0.9859514832496643, -7.052982807159424, -6.558865547180176, 2.27593994140625, 4.4592204093933105, -0.6701452732086182, 
79, 3355903780, -132.27755737304688, 5.534226894378662, 23.149444580078125, -1.1001943349838257, -7.094032287597656, -6.560631275177002, 0.954117476940155, 3.709005355834961, -2.145038604736328, 
80, 3355912113, -132.3147430419922, 5.491264343261719, 23.141956329345703, -1.115444540977478, -6.84671688079834, -6.462259769439697, -2.6352694034576416, 3.0922658443450928, -3.8446452617645264, 
81, 3355920446, -132.37545776367188, 5.439788818359375, 23.140947341918945, -1.0940476655960083, -6.628666877746582, -6.66285514831543, -5.627869606018066, 3.2248575687408447, -5.115533828735352, 
82, 3355928779, -132.48326110839844, 5.384451866149902, 23.136545181274414, -0.9560304284095764, -6.695827007293701, -6.685171604156494, -11.144537925720215, 3.831326723098755, -5.178776741027832, 
83, 3355937112, -132.6026153564453, 5.3227362632751465, 23.1262149810791, -0.9263511896133423, -6.837582588195801, -6.821349620819092, -12.558891296386719, 4.890743732452393, -5.253377914428711, 
84, 3355945445, -132.73104858398438, 5.262186050415039, 23.107421875, -0.8741258978843689, -6.914297580718994, -6.926443576812744, -13.4605131149292, 5.541474342346191, -4.454290866851807, 
85, 3355953778, -132.86569213867188, 5.202450275421143, 23.092069625854492, -0.8140166401863098, -6.94699239730835, -6.8675689697265625, -14.340644836425781, 5.190149307250977, -4.643144130706787, 
86, 3355962111, -133.0159149169922, 5.14707088470459, 23.09073257446289, -0.759075403213501, -7.219487190246582, -6.7592453956604, -16.26675796508789, 3.6099812984466553, -5.390055179595947, 
87, 3355970444, -133.14744567871094, 5.096009731292725, 23.10271644592285, -0.8171183466911316, -7.645389080047607, -6.920398235321045, -14.263496398925781, 2.1130597591400146, -6.084176540374756, 
88, 3355978777, -133.25401306152344, 5.035547733306885, 23.131685256958008, -0.830913245677948, -7.675326824188232, -6.96634578704834, -11.345609664916992, 1.405504584312439, -8.292827606201172, 
89, 3355987110, -133.3433380126953, 4.970169544219971, 23.168622970581055, -0.8309701085090637, -7.392784118652344, -6.9995527267456055, -9.457378387451172, 1.1407043933868408, -9.367805480957031, 
90, 3355995443, -133.43580627441406, 4.9110589027404785, 23.201465606689453, -0.8557071089744568, -7.284517288208008, -7.070964813232422, -9.69197940826416, 0.9813839197158813, -8.487264633178711, 
91, 3356003776, -133.53672790527344, 4.859408378601074, 23.224977493286133, -0.8872663378715515, -7.428139686584473, -7.186550140380859, -10.702665328979492, 1.201000452041626, -7.060962200164795, 
92, 3356012109, -133.65292358398438, 4.811594009399414, 23.243465423583984, -0.9046258330345154, -7.406248569488525, -7.08372163772583, -12.383206367492676, 1.317942500114441, -6.312707424163818, 
93, 3356020442, -133.78286743164062, 4.772311210632324, 23.261428833007812, -0.9371220469474792, -7.542453765869141, -6.983364582061768, -14.125894546508789, 0.6800196170806885, -5.521815299987793, 
94, 3356028775, -133.9020538330078, 4.7375874519348145, 23.285734176635742, -1.0473331212997437, -7.833433628082275, -6.97810697555542, -12.796710014343262, -0.24601200222969055, -5.649899959564209, 
95, 3356037108, -133.9833984375, 4.706971645355225, 23.319543838500977, -1.0932979583740234, -7.635366439819336, -7.057744026184082, -8.448883056640625, -1.3872159719467163, -6.081998348236084, 
96, 3356045441, -134.0473175048828, 4.678728103637695, 23.363210678100586, -1.1411597728729248, -7.676839351654053, -6.923104763031006, -6.3554816246032715, -2.4358882904052734, -6.700915336608887, 
97, 3356053774, -134.08526611328125, 4.651215553283691, 23.41448211669922, -1.1380661725997925, -7.562355041503906, -7.004246711730957, -3.4047977924346924, -3.1351308822631836, -7.266988277435303, 
98, 3356062107, -134.10028076171875, 4.6275315284729, 23.461942672729492, -1.1439261436462402, -7.571056842803955, -7.079146862030029, -0.5244002938270569, -3.13364577293396, -6.627504825592041, 
99, 3356070440, -134.09353637695312, 4.607546329498291, 23.499526977539062, -1.1415514945983887, -7.410163402557373, -7.064153671264648, 2.0951547622680664, -2.5859618186950684, -5.481010437011719, 
100, 3356078773, -134.08436584472656, 4.596501350402832, 23.532121658325195, -1.15956449508667, -7.411944389343262, -6.872918128967285, 2.5253970623016357, -2.9069085121154785, -4.300066947937012, 
101, 3356087106, -134.06723022460938, 4.596523761749268, 23.569250106811523, -1.1961219310760498, -7.667348384857178, -6.826460838317871, 3.348407745361328, -4.218869209289551, -3.7170350551605225, 
102, 3356095439, -134.024169921875, 4.6000237464904785, 23.613414764404297, -1.2111488580703735, -7.812631607055664, -6.924169540405273, 6.476700305938721, -5.116724967956543, -4.009319305419922, 
103, 3356103772, -133.94544982910156, 4.608941078186035, 23.66596221923828, -1.179337501525879, -7.61123514175415, -6.980076789855957, 10.58969497680664, -6.292612075805664, -4.224902153015137, 
104, 3356112105, -133.85765075683594, 4.622680187225342, 23.7241268157959, -1.0488824844360352, -7.276670455932617, -7.036915302276611, 11.704771995544434, -7.182615756988525, -4.277218818664551, 
105, 3356120438, -133.77223205566406, 4.639007568359375, 23.776893615722656, -0.9335005283355713, -7.175743103027344, -7.210449695587158, 11.388589859008789, -6.936695098876953, -3.5863265991210938, 
106, 3356128771, -133.6955108642578, 4.659595012664795, 23.813926696777344, -0.8324630260467529, -6.920456409454346, -7.265468120574951, 10.574798583984375, -5.932308197021484, -1.9223226308822632, 
107, 3356137104, -133.64120483398438, 4.683124542236328, 23.832172393798828, -0.8124774098396301, -6.863973140716553, -7.202149868011475, 7.987736225128174, -4.554595947265625, -0.09321022033691406, 
108, 3356145437, -133.61061096191406, 4.707274436950684, 23.83440399169922, -0.8466669321060181, -7.05144739151001, -7.20693826675415, 5.383612632751465, -3.2177114486694336, 1.2702739238739014, 
109, 3356153770, -133.58657836914062, 4.729988098144531, 23.82667350769043, -0.8746711611747742, -7.20258092880249, -7.12505578994751, 4.606451034545898, -2.234253168106079, 1.9816069602966309, 
110, 3356162103, -133.56771850585938, 4.750766754150391, 23.813276290893555, -0.8797490000724792, -7.248132228851318, -7.054544925689697, 4.131588935852051, -1.582703709602356, 2.2673850059509277, 
111, 3356170436, -133.54855346679688, 4.77431058883667, 23.800464630126953, -0.9019112586975098, -7.372370719909668, -6.9619340896606445, 4.074699878692627, -1.8623597621917725, 2.473092555999756, 
112, 3356178769, -133.51678466796875, 4.800385475158691, 23.7923526763916, -0.9196680784225464, -7.467383861541748, -6.905681610107422, 5.632698059082031, -2.4738097190856934, 2.293677568435669, 
113, 3356187102, -133.47787475585938, 4.8236236572265625, 23.79332160949707, -0.914696216583252, -7.374669075012207, -6.876341342926025, 6.305724620819092, -3.029958963394165, 1.3137410879135132, 
114, 3356195435, -133.43911743164062, 4.847853660583496, 23.799903869628906, -0.8831612467765808, -7.338602066040039, -6.800220012664795, 6.321861743927002, -3.593395471572876, 0.9240719079971313, 
115, 3356203768, -133.4044189453125, 4.87333345413208, 23.818069458007812, -0.900232195854187, -7.444397926330566, -6.703230381011963, 5.629611968994141, -4.704874038696289, 0.09832024574279785, 
116, 3356212101, -133.35267639160156, 4.897920608520508, 23.844863891601562, -0.8928486704826355, -7.318722724914551, -6.87679386138916, 7.665919303894043, -5.378605842590332, -0.7011897563934326, 
117, 3356220434, -133.3001251220703, 4.912247180938721, 23.877317428588867, -0.7619539499282837, -7.123420715332031, -6.942982196807861, 7.620761394500732, -5.0289201736450195, -2.040583848953247, 
118, 3356228767, -133.26199340820312, 4.925317287445068, 23.90141487121582, -0.7648965716362, -6.940517902374268, -7.054771900177002, 6.0622358322143555, -4.195099353790283, -1.4789146184921265, 
119, 3356237100, -133.24139404296875, 4.930874824523926, 23.91149139404297, -0.7823973894119263, -6.7195725440979, -7.064149856567383, 4.017567157745361, -2.360543966293335, -0.970638632774353, 
120, 3356245433, -133.25057983398438, 4.931848526000977, 23.905546188354492, -0.7441030740737915, -6.76704740524292, -7.070499420166016, 0.6914818286895752, -0.5836074352264404, -0.06909439712762833, 
121, 3356253766, -133.27981567382812, 4.921216011047363, 23.880653381347656, -0.8164215683937073, -7.017574310302734, -6.935988903045654, -1.6047319173812866, 2.0142650604248047, 0.47963932156562805, 
122, 3356262099, -133.30482482910156, 4.910917282104492, 23.852548599243164, -0.8690820932388306, -7.051355361938477, -6.9038591384887695, -0.9742373824119568, 2.2689473628997803, 0.7610117197036743, 
123, 3356270432, -133.3401641845703, 4.893561363220215, 23.828886032104492, -0.9034414291381836, -7.343382835388184, -6.711177349090576, -2.3497087955474854, 2.461374282836914, -0.2057463526725769, 
124, 3356278765, -133.35711669921875, 4.876779556274414, 23.82221221923828, -0.9812020659446716, -7.66849422454834, -6.614078521728516, -0.2264426201581955, 0.9384798407554626, -1.5589975118637085, 
125, 3356287098, -133.3535614013672, 4.859956741333008, 23.828577041625977, -0.9530541300773621, -7.660139083862305, -6.646200180053711, 2.0102436542510986, -0.19185061752796173, -2.620976448059082, 
126, 3356295431, -133.33389282226562, 4.84124755859375, 23.847137451171875, -0.9660830497741699, -7.455931186676025, -6.693341255187988, 3.9076437950134277, -1.1010791063308716, -3.803508758544922, 
127, 3356303764, -133.3047332763672, 4.8142170906066895, 23.86786651611328, -0.9437995553016663, -7.281596660614014, -6.810235023498535, 4.94043493270874, -0.6010379791259766, -4.68904447555542, 
128, 3356312097, -133.27279663085938, 4.783247470855713, 23.88616943359375, -0.892726719379425, -7.1421051025390625, -6.84842586517334, 5.379079341888428, -0.06862054020166397, -4.851797103881836, 
129, 3356320430, -133.24276733398438, 4.7443342208862305, 23.895811080932617, -0.8635165691375732, -7.070978164672852, -6.906953811645508, 5.156670570373535, 1.3331056833267212, -4.821725845336914, 
130, 3356328763, -133.21922302246094, 4.697748184204102, 23.899303436279297, -0.8571757674217224, -6.993948459625244, -6.872313022613525, 4.522923946380615, 2.504034996032715, -5.004100322723389, 
131, 3356337096, -133.211181640625, 4.643238067626953, 23.89853858947754, -0.9015884399414062, -7.067707061767578, -6.7972211837768555, 2.6227564811706543, 3.5205612182617188, -5.334804534912109, 
132, 3356345429, -133.21566772460938, 4.582973003387451, 23.891571044921875, -0.9971752762794495, -7.15260648727417, -6.679386138916016, 1.260566234588623, 4.5386505126953125, -5.34476900100708, 
133, 3356353762, -133.23387145996094, 4.52058744430542, 23.892616271972656, -0.9652410745620728, -7.121254920959473, -6.6262078285217285, -0.5461723804473877, 4.009562969207764, -6.170623302459717, 
134, 3356362095, -133.27041625976562, 4.461650848388672, 23.90894889831543, -0.8917666077613831, -7.184614658355713, -6.633137226104736, -2.8056044578552246, 2.401552677154541, -7.136562347412109, 
135, 3356370428, -133.29661560058594, 4.4052629470825195, 23.9385986328125, -0.8837121725082397, -7.238167762756348, -6.7539286613464355, -1.7708145380020142, 1.0330860614776611, -7.988285541534424, 
136, 3356378761, -133.32289123535156, 4.345270156860352, 23.97501564025879, -0.9047667980194092, -7.084184169769287, -6.767610549926758, -1.7545753717422485, 0.7467703223228455, -8.874642372131348, 
137, 3356387094, -133.35614013671875, 4.287800312042236, 24.01888656616211, -0.8085796236991882, -6.898138999938965, -6.8577728271484375, -2.7378029823303223, -0.11006436496973038, -9.250452041625977, 
138, 3356395427, -133.3894500732422, 4.23171854019165, 24.061689376831055, -0.7848069667816162, -6.9903998374938965, -7.00730037689209, -2.6443629264831543, -0.12018202245235443, -9.054403305053711, 
139, 3356403760, -133.4180908203125, 4.177530765533447, 24.094411849975586, -0.7427435517311096, -6.951174736022949, -7.126253128051758, -2.0785436630249023, 0.5973367691040039, -8.047172546386719, 
140, 3356412093, -133.43614196777344, 4.125119686126709, 24.114662170410156, -0.7258009314537048, -6.874253749847412, -7.162947177886963, -0.6077232956886292, 1.5458317995071411, -6.881008148193359, 
141, 3356420426, -133.45408630371094, 4.069207668304443, 24.122209548950195, -0.7219206690788269, -7.00146484375, -7.146752834320068, -0.5702496767044067, 2.931779623031616, -6.123851299285889, 
142, 3356428759, -133.47645568847656, 4.007277011871338, 24.11628532409668, -0.6698611974716187, -7.107798099517822, -7.200984954833984, -0.8974459767341614, 4.609935283660889, -5.553781509399414, 
143, 3356437092, -133.51548767089844, 3.952136516571045, 24.10750389099121, -0.5861946940422058, -7.170333385467529, -7.038465976715088, -2.9622862339019775, 4.290781021118164, -4.707179069519043, 
144, 3356445425, -133.5725555419922, 3.915818691253662, 24.107484817504883, -0.6082910895347595, -7.465668678283691, -6.930685520172119, -5.109054088592529, 1.985410451889038, -3.804213047027588, 
145, 3356453758, -133.6117401123047, 3.8947808742523193, 24.12070655822754, -0.6932435035705566, -7.798017978668213, -6.935217380523682, -3.161027431488037, -0.4321121871471405, -3.5511322021484375, 
146, 3356462091, -133.6207733154297, 3.876189947128296, 24.149124145507812, -0.6927788853645325, -7.790801525115967, -7.091332912445068, 0.42502984404563904, -1.9417897462844849, -4.609025955200195, 
147, 3356470424, -133.61117553710938, 3.855790376663208, 24.179155349731445, -0.6388009190559387, -7.614306449890137, -7.195671558380127, 2.5549559593200684, -1.9407391548156738, -4.881918907165527, 
148, 3356478757, -133.60118103027344, 3.831949234008789, 24.201982498168945, -0.6602415442466736, -7.516149997711182, -7.246829509735107, 2.750981569290161, -1.023621678352356, -4.602314472198486, 
149, 3356487090, -133.59327697753906, 3.8042118549346924, 24.2086124420166, -0.6472615599632263, -7.42731237411499, -7.243518352508545, 2.546682596206665, 0.6945684552192688, -3.5880677700042725, 
150, 3356495423, -133.59329223632812, 3.7788069248199463, 24.20018196105957, -0.6566551327705383, -7.416689395904541, -7.181645393371582, 1.796697974205017, 1.8118098974227905, -2.1607143878936768, 
151, 3356503756, -133.595947265625, 3.7551841735839844, 24.18130874633789, -0.6509780287742615, -7.4550065994262695, -7.191771507263184, 1.47990083694458, 2.5664312839508057, -1.124772310256958, 
152, 3356512089, -133.59799194335938, 3.7322795391082764, 24.159404754638672, -0.6921727657318115, -7.4305033683776855, -7.105319499969482, 1.659738540649414, 2.775264024734497, -0.8287230134010315, 
153, 3356520422, -133.59722900390625, 3.7083868980407715, 24.13555335998535, -0.7643048763275146, -7.490533351898193, -7.016259670257568, 1.9273813962936401, 3.0204689502716064, -0.736076295375824, 
154, 3356528755, -133.59034729003906, 3.6851119995117188, 24.113325119018555, -0.8135604858398438, -7.622800350189209, -6.958632469177246, 2.7352027893066406, 2.833766460418701, -0.832897961139679, 
155, 3356537088, -133.5646514892578, 3.6638970375061035, 24.100650787353516, -0.8723081350326538, -7.5744853019714355, -6.869475364685059, 4.829090118408203, 1.8277678489685059, -1.4289414882659912, 
156, 3356545421, -133.52845764160156, 3.6501004695892334, 24.101430892944336, -0.858022153377533, -7.29539155960083, -6.779284954071045, 6.070176601409912, 0.05487849563360214, -1.9089521169662476, 
157, 3356553754, -133.4918212890625, 3.6424925327301025, 24.114089965820312, -0.8050387501716614, -7.264176368713379, -6.871812343597412, 5.951210975646973, -1.4968574047088623, -2.3349552154541016, 
158, 3356562087, -133.4521484375, 3.6362831592559814, 24.132205963134766, -0.7777107954025269, -7.216585636138916, -6.943011283874512, 6.352497577667236, -2.081618070602417, -2.6818618774414062, 
159, 3356570420, -133.41458129882812, 3.6286585330963135, 24.148191452026367, -0.7219566106796265, -7.094584941864014, -7.010456562042236, 6.0378899574279785, -1.7856320142745972, -2.6108458042144775, 
160, 3356578753, -133.39114379882812, 3.617079019546509, 24.15456771850586, -0.7457096576690674, -7.137199878692627, -7.066471099853516, 4.492545127868652, -0.6179434657096863, -2.1827683448791504, 
161, 3356587086, -133.3767547607422, 3.6025333404541016, 24.15083122253418, -0.7404492497444153, -7.149339199066162, -6.976599216461182, 3.4041190147399902, 0.499490350484848, -1.5928725004196167, 
162, 3356595419, -133.36862182617188, 3.5842134952545166, 24.137279510498047, -0.7989524602890015, -7.212994575500488, -6.977634429931641, 2.8100483417510986, 1.6738005876541138, -1.1309454441070557, 
163, 3356603752, -133.36619567871094, 3.5644567012786865, 24.121973037719727, -0.7984737157821655, -7.288663864135742, -6.861980438232422, 2.055760145187378, 1.9331191778182983, -1.095162272453308, 
164, 3356612085, -133.37071228027344, 3.544494867324829, 24.11240577697754, -0.8586133122444153, -7.417150020599365, -6.691915988922119, 1.2633068561553955, 1.4628674983978271, -1.6039890050888062, 
165, 3356620418, -133.3768768310547, 3.529489278793335, 24.115114212036133, -0.8284554481506348, -7.583224296569824, -6.695327281951904, 0.8882119059562683, -0.023898079991340637, -2.162609815597534, 
166, 3356628751, -133.36370849609375, 3.511805534362793, 24.132667541503906, -0.7379055023193359, -7.5362701416015625, -6.853886604309082, 3.1820435523986816, -1.0861972570419312, -3.6376571655273438, 
167, 3356637084, -133.34080505371094, 3.491664409637451, 24.153535842895508, -0.6449418067932129, -7.30658483505249, -6.946860313415527, 4.245265483856201, -1.1839669942855835, -4.102529525756836, 
168, 3356645417, -133.32644653320312, 3.468001365661621, 24.170520782470703, -0.6524047255516052, -7.212465763092041, -6.980153560638428, 3.327993392944336, -0.5445586442947388, -4.112186431884766, 
169, 3356653750, -133.31690979003906, 3.441847801208496, 24.181791305541992, -0.6056461334228516, -7.045512676239014, -7.031223773956299, 2.7110235691070557, 0.14580903947353363, -3.8405215740203857, 
170, 3356662083, -133.31614685058594, 3.417123556137085, 24.187421798706055, -0.5672388672828674, -7.072739124298096, -7.05579948425293, 1.7806885242462158, 0.5316873788833618, -3.2724485397338867, 
171, 3356670416, -133.3156280517578, 3.3895671367645264, 24.18549919128418, -0.6212608218193054, -7.238407135009766, -7.101211071014404, 1.7240558862686157, 1.4105888605117798, -2.8782975673675537, 
172, 3356678749, -133.3148651123047, 3.358891487121582, 24.179502487182617, -0.6585550308227539, -7.129685878753662, -6.989342212677002, 1.8640117645263672, 2.034013509750366, -2.8376214504241943, 
173, 3356687082, -133.327392578125, 3.3276493549346924, 24.16842269897461, -0.6460738778114319, -7.174186706542969, -6.949948310852051, 0.22042326629161835, 2.51120662689209, -2.448439121246338, 
174, 3356695415, -133.3435516357422, 3.3000030517578125, 24.162097930908203, -0.7209895253181458, -7.466544151306152, -6.875257968902588, -0.15924368798732758, 1.8167022466659546, -2.542494297027588, 
175, 3356703748, -133.34735107421875, 3.277599811553955, 24.164688110351562, -0.7169719338417053, -7.43743371963501, -6.827651023864746, 1.172120213508606, 0.5934690833091736, -2.7989439964294434, 
176, 3356712081, -133.34677124023438, 3.258859157562256, 24.180526733398438, -0.7299187779426575, -7.407747745513916, -6.815834045410156, 1.6946759223937988, -0.8482152819633484, -3.590449571609497, 
177, 3356720414, -133.34249877929688, 3.2415239810943604, 24.205339431762695, -0.7090142369270325, -7.426981449127197, -6.890193462371826, 1.993415117263794, -1.7606714963912964, -4.1853156089782715, 
178, 3356728747, -133.32789611816406, 3.2202775478363037, 24.235733032226562, -0.7063987851142883, -7.38118839263916, -7.019439220428467, 3.2741527557373047, -1.9115135669708252, -5.006302833557129, 
179, 3356737080, -133.30972290039062, 3.196744680404663, 24.25469207763672, -0.6910923719406128, -7.2020697593688965, -7.1421380043029785, 3.7027556896209717, -0.7415065169334412, -4.243048667907715, 
180, 3356745413, -133.3009490966797, 3.165996789932251, 24.256601333618164, -0.5989529490470886, -7.038755416870117, -7.217125415802002, 2.768911600112915, 1.3531873226165771, -3.4962661266326904, 
181, 3356753746, -133.3080291748047, 3.1309502124786377, 24.242919921875, -0.49259933829307556, -6.917367935180664, -7.147415637969971, 0.8896591067314148, 3.0525248050689697, -2.566635847091675, 
182, 3356762079, -133.33602905273438, 3.101036310195923, 24.217792510986328, -0.5380118489265442, -7.092957496643066, -7.022425651550293, -1.4654029607772827, 3.643855094909668, -1.1984260082244873, 
183, 3356770412, -133.36253356933594, 3.075016736984253, 24.191957473754883, -0.6279191970825195, -7.334301948547363, -7.008182048797607, -1.3644062280654907, 3.369091272354126, -0.776610791683197, 
184, 3356778745, -133.37384033203125, 3.0506553649902344, 24.175466537475586, -0.6544308662414551, -7.469090461730957, -6.9243669509887695, 0.48079195618629456, 2.432955265045166, -1.421052098274231, 
185, 3356787078, -133.37103271484375, 3.0250349044799805, 24.1677303314209, -0.649529218673706, -7.433032989501953, -6.921997547149658, 2.0354480743408203, 1.7602487802505493, -2.2286691665649414, 
186, 3356795411, -133.36264038085938, 3.003415107727051, 24.166322708129883, -0.6767343878746033, -7.4289445877075195, -6.941474437713623, 2.7488808631896973, 0.894359290599823, -2.4248223304748535, 
187, 3356803744, -133.34432983398438, 2.9847452640533447, 24.168970108032227, -0.6321871280670166, -7.4586710929870605, -6.9435038566589355, 3.827932119369507, 0.281410813331604, -2.4771783351898193, 
188, 3356812077, -133.318115234375, 2.968491792678833, 24.177425384521484, -0.588651716709137, -7.414002418518066, -7.000697135925293, 4.8304219245910645, -0.4076249599456787, -2.767080307006836, 
189, 3356820410, -133.29278564453125, 2.9531495571136475, 24.18674087524414, -0.5594136714935303, -7.357382774353027, -7.045058250427246, 4.630221366882324, -0.5748090744018555, -2.7358310222625732, 
190, 3356828743, -133.2743377685547, 2.934400796890259, 24.188322067260742, -0.5473491549491882, -7.324304103851318, -7.1010870933532715, 3.9336166381835938, 0.3962137997150421, -2.422389507293701, 
191, 3356837076, -133.2666015625, 2.9124951362609863, 24.184232711791992, -0.47684961557388306, -7.189065456390381, -7.0585761070251465, 2.6049296855926514, 1.1313937902450562, -2.2101502418518066, 
192, 3356845409, -133.27256774902344, 2.8921165466308594, 24.170997619628906, -0.47312918305397034, -7.320849418640137, -7.000073432922363, 1.0960972309112549, 1.8247710466384888, -1.3461048603057861, 
193, 3356853742, -133.28134155273438, 2.867520332336426, 24.16268539428711, -0.49915042519569397, -7.351942539215088, -7.014095306396484, 0.6443900465965271, 1.7233895063400269, -2.096832275390625, 
194, 3356862075, -133.29428100585938, 2.8461480140686035, 24.156208038330078, -0.4953908920288086, -7.459993362426758, -6.905763626098633, 0.21898891031742096, 1.3119484186172485, -1.9896371364593506, 
195, 3356870408, -133.29367065429688, 2.8251819610595703, 24.15752601623535, -0.4938417077064514, -7.414755344390869, -6.929861068725586, 1.7148730754852295, 0.5843632221221924, -2.5713236331939697, 
196, 3356878741, -133.2821502685547, 2.8048062324523926, 24.161123275756836, -0.46870505809783936, -7.468443870544434, -6.915583610534668, 3.092419147491455, 0.35290011763572693, -2.7297089099884033, 
197, 3356887074, -133.2694854736328, 2.782841444015503, 24.16684913635254, -0.5624117255210876, -7.539991855621338, -6.94204044342041, 3.1359636783599854, 0.2821279764175415, -3.0185606479644775, 
198, 3356895407, -133.2556915283203, 2.7622804641723633, 24.170955657958984, -0.5386256575584412, -7.347777366638184, -6.940212249755859, 3.3602676391601562, 0.3215227425098419, -2.7888779640197754, 
199, 3356903740, -133.25196838378906, 2.7412021160125732, 24.175674438476562, -0.4799923598766327, -7.246528148651123, -6.929433345794678, 2.0705909729003906, 0.29560109972953796, -2.859445333480835, 
200, 3356912073, -133.24566650390625, 2.7216861248016357, 24.176288604736328, -0.5129554271697998, -7.247368335723877, -6.969612121582031, 2.4830825328826904, 0.5429065823554993, -2.4110682010650635, 
201, 3356920406, -133.24075317382812, 2.6995596885681152, 24.178346633911133, -0.45605871081352234, -7.138739109039307, -6.980462074279785, 2.22629976272583, 0.613396942615509, -2.73470401763916, 
202, 3356928739, -133.24623107910156, 2.6816446781158447, 24.173233032226562, -0.4539570212364197, -7.201001167297363, -7.006047248840332, 1.1028081178665161, 0.9091901779174805, -1.7987595796585083, 
203, 3356937072, -133.24391174316406, 2.667055606842041, 24.170673370361328, -0.40754973888397217, -7.290849685668945, -7.040680885314941, 1.9410085678100586, 0.3965980112552643, -1.69668710231781, 
204, 3356945405, -133.2370147705078, 2.654999256134033, 24.168540954589844, -0.378216415643692, -7.352154731750488, -6.994741916656494, 2.5711441040039062, 0.1679653376340866, -1.532320499420166, 
205, 3356953738, -133.21273803710938, 2.638643264770508, 24.168970108032227, -0.35871821641921997, -7.393994331359863, -7.109890937805176, 4.561344623565674, 0.2816413342952728, -2.09429669380188, 
206, 3356962071, -133.17416381835938, 2.6171631813049316, 24.16748809814453, -0.37744754552841187, -7.26971435546875, -7.059142589569092, 6.365969657897949, 0.8821926116943359, -2.412323236465454, 
207, 3356970404, -133.14337158203125, 2.598358631134033, 24.157888412475586, -0.38279667496681213, -7.088311195373535, -7.031709671020508, 5.395369529724121, 1.3561328649520874, -1.4898008108139038, 
208, 3356978737, -133.12872314453125, 2.583632230758667, 24.143474578857422, -0.4016653299331665, -7.173111915588379, -6.956747531890869, 3.572173833847046, 1.4602546691894531, -0.7581813335418701, 
209, 3356987070, -133.11898803710938, 2.5713090896606445, 24.127403259277344, -0.4681219458580017, -7.179318904876709, -6.9038238525390625, 2.903104782104492, 1.3901742696762085, -0.3942030966281891, 
210, 3356995403, -133.11141967773438, 2.562218189239502, 24.112934112548828, -0.5432767271995544, -7.289134502410889, -6.907701015472412, 2.7193989753723145, 1.0006585121154785, -0.26218733191490173, 
211, 3357003736, -133.09661865234375, 2.550797939300537, 24.096485137939453, -0.5807937979698181, -7.338951110839844, -6.953624725341797, 3.513542413711548, 1.3494986295700073, -0.2842923402786255, 
212, 3357012069, -133.0747833251953, 2.538599967956543, 24.07740592956543, -0.6125419735908508, -7.278608798980713, -6.9074859619140625, 4.454404830932617, 1.6614545583724976, -0.15742509067058563, 
213, 3357020402, -133.05349731445312, 2.528186082839966, 24.05947494506836, -0.5319187641143799, -7.287296772003174, -6.902738571166992, 4.300156593322754, 1.3974742889404297, -0.07594620436429977, 
214, 3357028735, -133.03306579589844, 2.5218286514282227, 24.04438018798828, -0.46992990374565125, -7.30519437789917, -6.888989448547363, 4.264706134796143, 0.8335513472557068, 0.024704929441213608, 
215, 3357037068, -133.0113525390625, 2.5175211429595947, 24.035032272338867, -0.48147374391555786, -7.326729774475098, -6.918032169342041, 4.304331302642822, 0.14642378687858582, -0.24261805415153503, 
216, 3357045401, -132.9840087890625, 2.514997720718384, 24.029176712036133, -0.4409334361553192, -7.311747074127197, -6.9816575050354, 5.0477070808410645, -0.2917461097240448, -0.39538130164146423, 
217, 3357053734, -132.9551544189453, 2.5102546215057373, 24.02363395690918, -0.3571874499320984, -7.221305847167969, -7.027759552001953, 5.14117431640625, -0.15030433237552643, -0.5943014621734619, 
218, 3357062067, -132.93377685546875, 2.5032496452331543, 24.014671325683594, -0.3557536005973816, -7.204335689544678, -6.981178283691406, 4.348733901977539, 0.34832799434661865, -0.5366054177284241, 
219, 3357070400, -132.91824340820312, 2.496445417404175, 24.00181007385254, -0.46220695972442627, -7.251697063446045, -6.910373687744141, 3.579281806945801, 0.6587468981742859, -0.17690472304821014, 
220, 3357078733, -132.90072631835938, 2.4909238815307617, 23.98862075805664, -0.5177910923957825, -7.262700080871582, -6.912624835968018, 3.906926393508911, 0.5991553664207458, -0.06096187233924866, 
221, 3357087066, -132.89195251464844, 2.4899682998657227, 23.97677993774414, -0.502206027507782, -7.179890155792236, -6.876213073730469, 2.7638401985168457, 0.09191668778657913, 0.25087863206863403, 
222, 3357095399, -132.88941955566406, 2.493337392807007, 23.96281623840332, -0.5049484968185425, -7.182863235473633, -6.9029412269592285, 2.1129565238952637, -0.059578705579042435, 0.7836290001869202, 
223, 3357103732, -132.888671875, 2.497079372406006, 23.947256088256836, -0.491424024105072, -7.253415584564209, -6.961872577667236, 1.8201088905334473, 0.035155534744262695, 0.9682308435440063, 
224, 3357112065, -132.88746643066406, 2.49899959564209, 23.923906326293945, -0.4436505436897278, -7.240536212921143, -7.013543605804443, 2.0047109127044678, 0.8833965063095093, 1.4203733205795288, 
225, 3357120398, -132.89016723632812, 2.4974513053894043, 23.892318725585938, -0.4406912326812744, -7.216668605804443, -6.9845290184021, 1.4880719184875488, 1.8749748468399048, 1.81070876121521, 
226, 3357128731, -132.89149475097656, 2.49438738822937, 23.855388641357422, -0.4549109935760498, -7.39889669418335, -6.9698567390441895, 1.773158073425293, 2.4837992191314697, 2.0920298099517822, 
227, 3357137064, -132.8856658935547, 2.4933698177337646, 23.824735641479492, -0.45113369822502136, -7.583475589752197, -6.8743133544921875, 2.5085175037384033, 1.7500543594360352, 1.7816624641418457, 
228, 3357145397, -132.86691284179688, 2.4967095851898193, 23.801156997680664, -0.44038885831832886, -7.7183756828308105, -6.861399173736572, 4.111148834228516, 0.7877273559570312, 1.5626091957092285, 
229, 3357153730, -132.8421630859375, 2.5012829303741455, 23.787630081176758, -0.4627895951271057, -7.6489763259887695, -6.950113773345947, 4.688237190246582, -0.21070268750190735, 0.8760195970535278, 
230, 3357162063, -132.81089782714844, 2.506762981414795, 23.77498435974121, -0.42597609758377075, -7.542214870452881, -6.971621990203857, 5.55540657043457, -0.3455103933811188, 0.8601900339126587, 
231, 3357170396, -132.7698516845703, 2.511948585510254, 23.758127212524414, -0.48016706109046936, -7.503800868988037, -6.997506618499756, 6.664196014404297, 0.03454079478979111, 1.1992199420928955, 
232, 3357178729, -132.718994140625, 2.5124869346618652, 23.740375518798828, -0.5120536684989929, -7.4992194175720215, -6.91446590423584, 7.932178974151611, 0.5076870322227478, 0.8390328288078308, 
233, 3357187062, -132.66346740722656, 2.509476900100708, 23.72126579284668, -0.5327275991439819, -7.580684661865234, -6.833266735076904, 8.413290023803711, 0.9025815725326538, 0.6579143404960632, 
234, 3357195395, -132.60659790039062, 2.5009260177612305, 23.70855712890625, -0.5402384996414185, -7.4202656745910645, -6.842177867889404, 8.626605987548828, 0.8040436506271362, -0.37688785791397095, 
235, 3357203728, -132.55482482910156, 2.4887659549713135, 23.696352005004883, -0.557446300983429, -7.3139753341674805, -6.819509506225586, 7.924392223358154, 1.038490891456604, -0.7144322991371155, 
236, 3357212061, -132.5189971923828, 2.477250576019287, 23.68777847290039, -0.5827804207801819, -7.32438850402832, -6.73439359664917, 6.079526424407959, 0.6816332936286926, -0.9755949974060059, 
237, 3357220394, -132.49761962890625, 2.4675111770629883, 23.681957244873047, -0.5767465233802795, -7.433396816253662, -6.769320964813232, 4.240654468536377, 0.27828583121299744, -1.0207016468048096, 
238, 3357228727, -132.47418212890625, 2.4628639221191406, 23.677719116210938, -0.5603341460227966, -7.459298610687256, -6.717005252838135, 4.5724101066589355, -0.25980520248413086, -0.7212200164794922, 
239, 3357237060, -132.44464111328125, 2.45953631401062, 23.680885314941406, -0.605752170085907, -7.427542209625244, -6.59314489364624, 5.177366256713867, -1.0354809761047363, -1.182224988937378, 
240, 3357245393, -132.40005493164062, 2.4574801921844482, 23.690595626831055, -0.6663557887077332, -7.671941757202148, -6.661173343658447, 7.034783840179443, -1.7033467292785645, -1.6231741905212402, 
241, 3357253726, -132.32469177246094, 2.4528520107269287, 23.714200973510742, -0.6299059987068176, -7.685397148132324, -6.648665428161621, 10.569906234741211, -2.742260217666626, -2.9467127323150635, 
242, 3357262059, -132.2503662109375, 2.4601211547851562, 23.740047454833984, -0.6574367880821228, -7.589150905609131, -6.612728118896484, 10.519011497497559, -3.8887789249420166, -2.0952444076538086, 
243, 3357270392, -132.17462158203125, 2.45678448677063, 23.781055450439453, -0.5626797080039978, -7.235320568084717, -6.86698055267334, 10.526541709899902, -4.39699125289917, -4.230344295501709, 
244, 3357278725, -132.14369201660156, 2.4654955863952637, 23.80569839477539, -0.5269155502319336, -7.359447956085205, -6.695754528045654, 5.313737392425537, -3.9001004695892334, -1.8635125160217285, 
245, 3357287058, -132.09356689453125, 2.456401824951172, 23.842159271240234, -0.2445005476474762, -7.027720928192139, -6.880640029907227, 7.476821422576904, -3.5354950428009033, -4.371082305908203, 
246, 3357295391, -132.07876586914062, 2.451106071472168, 23.853601455688477, -0.36165642738342285, -7.230757236480713, -7.036808013916016, 3.44250226020813, -1.5992120504379272, -2.048870086669922, 
247, 3357303724, -132.0734100341797, 2.4417591094970703, 23.853416442871094, -0.3870476484298706, -7.241445541381836, -6.985695838928223, 2.2948689460754395, -0.25703880190849304, -1.4476908445358276, 
248, 3357312057, -132.08314514160156, 2.433147668838501, 23.84195327758789, -0.3432292640209198, -7.276194095611572, -6.862473011016846, 0.6204409003257751, 0.7038663625717163, -0.5024232268333435, 
249, 3357320390, -132.1006317138672, 2.4215173721313477, 23.829242706298828, -0.34329354763031006, -7.510106086730957, -6.841465473175049, -0.3858528137207031, 1.0400787591934204, -0.6443260908126831, 
250, 3357328723, -132.1117401123047, 2.4098856449127197, 23.820775985717773, -0.36591798067092896, -7.565568923950195, -6.784550189971924, 0.44198641180992126, 0.6819149255752563, -1.0095850229263306, 
251, 3357337056, -132.11746215820312, 2.399761438369751, 23.82073211669922, -0.40838953852653503, -7.497742176055908, -6.740970134735107, 0.9629799723625183, -0.20811566710472107, -1.5274279117584229, 
252, 3357345389, -132.1214141845703, 2.3913040161132812, 23.822566986083984, -0.42593562602996826, -7.551998138427734, -6.821924686431885, 1.2486809492111206, -0.4890013039112091, -1.5557829141616821, 
253, 3357353722, -132.11947631835938, 2.382526397705078, 23.827716827392578, -0.4188613295555115, -7.461981296539307, -6.870512962341309, 1.8553030490875244, -0.7777250409126282, -1.8256288766860962, 
254, 3357362055, -132.12332153320312, 2.3744945526123047, 23.827808380126953, -0.44909152388572693, -7.332468509674072, -6.848089218139648, 1.2694799900054932, -0.36945974826812744, -1.3768421411514282, 
255, 3357370388, -132.1309051513672, 2.363410234451294, 23.821794509887695, -0.4854634404182434, -7.410094738006592, -6.858267307281494, 0.7688881158828735, 0.40214353799819946, -1.1324436664581299, 
256, 3357378721, -132.14016723632812, 2.3496081829071045, 23.808486938476562, -0.4711291491985321, -7.365246772766113, -6.894217491149902, 0.6858468055725098, 1.2837598323822021, -0.8150064945220947, 
257, 3357387054, -132.1579132080078, 2.3351147174835205, 23.7887020111084, -0.502988338470459, -7.301231384277344, -6.833961486816406, -0.38557112216949463, 1.8997182846069336, -0.32791346311569214, 
258, 3357395387, -132.1936798095703, 2.3255531787872314, 23.765329360961914, -0.5118997097015381, -7.411917209625244, -6.752262115478516, -2.4432907104492188, 1.8400626182556152, 0.37697747349739075, 
259, 3357403720, -132.23056030273438, 2.3203928470611572, 23.742156982421875, -0.5355262756347656, -7.532756805419922, -6.75799036026001, -2.6627278327941895, 1.4488821029663086, 0.7779171466827393, 
260, 3357412053, -132.26718139648438, 2.318246603012085, 23.723155975341797, -0.48645228147506714, -7.440865993499756, -6.752830505371094, -2.5699784755706787, 0.8507639765739441, 0.6856546401977539, 
261, 3357420386, -132.30825805664062, 2.31669282913208, 23.70541763305664, -0.46217694878578186, -7.43262243270874, -6.8357672691345215, -3.1949403285980225, 0.6728730797767639, 0.6632165908813477, 
262, 3357428719, -132.3499298095703, 2.314755916595459, 23.686426162719727, -0.4004497230052948, -7.492569923400879, -6.8694915771484375, -3.1768314838409424, 0.8309386968612671, 0.705249547958374, 
263, 3357437052, -132.3899383544922, 2.310892105102539, 23.67070770263672, -0.3922056555747986, -7.483488082885742, -6.873642444610596, -3.076167106628418, 0.6782777309417725, 0.29765021800994873, 
264, 3357445385, -132.43312072753906, 2.306389331817627, 23.658111572265625, -0.3609437048435211, -7.495500564575195, -6.882960319519043, -3.3906333446502686, 0.4733639061450958, -0.035347647964954376, 
265, 3357453718, -132.48089599609375, 2.303473472595215, 23.646472930908203, -0.3321045935153961, -7.491885662078857, -6.918054580688477, -4.027633190155029, 0.23799465596675873, 0.0519072450697422, 
266, 3357462051, -132.53765869140625, 2.301006555557251, 23.634422302246094, -0.323993980884552, -7.387023448944092, -6.908622741699219, -5.022055149078369, 0.2587166130542755, 0.10490310937166214, 
267, 3357470384, -132.60665893554688, 2.2995357513427734, 23.61659812927246, -0.36519482731819153, -7.351153373718262, -6.986287593841553, -6.545923233032227, 0.667801558971405, 0.6848093867301941, 
268, 3357478717, -132.6904296875, 2.2965402603149414, 23.5911865234375, -0.34161376953125, -7.325343608856201, -7.036948204040527, -8.197656631469727, 1.475162148475647, 1.1455326080322266, 
269, 3357487050, -132.78131103515625, 2.291997194290161, 23.56004524230957, -0.3596230149269104, -7.387537002563477, -6.966208457946777, -9.109448432922363, 2.085549831390381, 1.501314401626587, 
270, 3357495383, -132.86380004882812, 2.285771608352661, 23.525859832763672, -0.38877177238464355, -7.36264705657959, -6.919839382171631, -8.000298500061035, 2.5058789253234863, 1.584227442741394, 
271, 3357503716, -132.94003295898438, 2.280222177505493, 23.49576187133789, -0.4215528964996338, -7.440426826477051, -6.838377475738525, -7.355434894561768, 2.072435140609741, 1.3393555879592896, 
272, 3357512049, -133.0046844482422, 2.278252601623535, 23.472423553466797, -0.4775960147380829, -7.415349960327148, -6.841066837310791, -5.912893295288086, 1.1987078189849854, 1.081087350845337, 
273, 3357520382, -133.06716918945312, 2.278364419937134, 23.45585823059082, -0.5371257066726685, -7.334843635559082, -6.833704948425293, -5.771629810333252, 0.4168332815170288, 0.7336813807487488, 
274, 3357528715, -133.12603759765625, 2.278505563735962, 23.442306518554688, -0.5179499387741089, -7.363869667053223, -6.883145809173584, -5.265108108520508, 0.1661723405122757, 0.47018760442733765, 
275, 3357537048, -133.17376708984375, 2.278313159942627, 23.431936264038086, -0.4632537364959717, -7.295158863067627, -6.8894362449646, -4.032909870147705, -0.10281553119421005, 0.20187857747077942, 
276, 3357545381, -133.21768188476562, 2.276822090148926, 23.418411254882812, -0.5114791393280029, -7.314793109893799, -6.8978729248046875, -3.471573829650879, 0.29537054896354675, 0.3238535523414612, 
277, 3357553714, -133.25787353515625, 2.2744390964508057, 23.405860900878906, -0.49398159980773926, -7.289290428161621, -6.901474952697754, -3.1172780990600586, 0.2673998177051544, 0.19273431599140167, 
278, 3357562047, -133.29611206054688, 2.2724056243896484, 23.38844108581543, -0.46830397844314575, -7.229701519012451, -6.917257308959961, -2.773214817047119, 0.6820046305656433, 0.6013709902763367, 
279, 3357570380, -133.3369598388672, 2.2695395946502686, 23.37096405029297, -0.5252647399902344, -7.320372581481934, -6.91765832901001, -3.1700048446655273, 0.7341295480728149, 0.5556495785713196, 
280, 3357578713, -133.3765411376953, 2.2666876316070557, 23.353137969970703, -0.5166106820106506, -7.342639446258545, -6.873384952545166, -2.9348793029785156, 0.7825276851654053, 0.5679060816764832, 
281, 3357587046, -133.4107666015625, 2.2643892765045166, 23.337312698364258, -0.5293048024177551, -7.319464206695557, -6.9103827476501465, -2.3843014240264893, 0.5420612692832947, 0.4706488251686096, 
282, 3357595379, -133.43980407714844, 2.260854482650757, 23.32364273071289, -0.5248000621795654, -7.3680243492126465, -6.9366068840026855, -1.6888489723205566, 0.47607895731925964, 0.16445618867874146, 
283, 3357603712, -133.4629669189453, 2.2545716762542725, 23.314376831054688, -0.4674740731716156, -7.294747352600098, -6.999148845672607, -1.0851984024047852, 0.2986748218536377, -0.4133369028568268, 
284, 3357612045, -133.48521423339844, 2.247622489929199, 23.30221939086914, -0.42204633355140686, -7.20056676864624, -7.020000457763672, -0.8827944993972778, 0.6275103092193604, -0.2574230432510376, 
285, 3357620378, -133.50706481933594, 2.2407569885253906, 23.289295196533203, -0.43806132674217224, -7.270034313201904, -7.007818222045898, -0.9122253656387329, 0.6647278070449829, -0.16098546981811523, 
286, 3357628711, -133.531494140625, 2.2357380390167236, 23.273298263549805, -0.4540693461894989, -7.268326282501221, -7.035242557525635, -1.1268725395202637, 0.7989720106124878, 0.22741597890853882, 
287, 3357637044, -133.56158447265625, 2.2316713333129883, 23.255462646484375, -0.47372227907180786, -7.249197483062744, -7.014407634735107, -1.8797773122787476, 0.8605998158454895, 0.4906790852546692, 
288, 3357645377, -133.5937042236328, 2.2271130084991455, 23.23662567138672, -0.47761771082878113, -7.355357646942139, -6.958140850067139, -2.034205675125122, 1.006447434425354, 0.5048181414604187, 
289, 3357653710, -133.61785888671875, 2.2196176052093506, 23.22079086303711, -0.5069366097450256, -7.389001369476318, -7.01138162612915, -1.1757830381393433, 0.9696266651153564, 0.0269461739808321, 
290, 3357662043, -133.63941955566406, 2.214536666870117, 23.203699111938477, -0.5371642112731934, -7.320820331573486, -7.025007247924805, -0.7770077586174011, 0.8985601663589478, 0.31691211462020874, 
291, 3357670376, -133.6578826904297, 2.2096171379089355, 23.184894561767578, -0.5117573142051697, -7.3197832107543945, -7.06419038772583, -0.4808816611766815, 1.0133888721466064, 0.4972876310348511, 
292, 3357678709, -133.67645263671875, 2.203202962875366, 23.170364379882812, -0.49832385778427124, -7.2249650955200195, -7.058138370513916, -0.43049848079681396, 0.7853708863258362, -0.010911664925515652, 
293, 3357687042, -133.7047119140625, 2.1983797550201416, 23.156558990478516, -0.5228100419044495, -7.191079616546631, -6.970249652862549, -1.6807292699813843, 0.5703393220901489, 0.09455494582653046, 
294, 3357695375, -133.7405242919922, 2.1984550952911377, 23.146183013916016, -0.5478911399841309, -7.361589431762695, -6.979424953460693, -2.5203638076782227, -0.11242088675498962, 0.20746248960494995, 
295, 3357703708, -133.76780700683594, 2.1986896991729736, 23.139375686645508, -0.5259129405021667, -7.469147682189941, -6.998176097869873, -1.5934358835220337, -0.45577970147132874, -0.044261399656534195, 
296, 3357712041, -133.7811279296875, 2.2006149291992188, 23.134445190429688, -0.4776954650878906, -7.510828495025635, -6.967040538787842, 0.15441541373729706, -0.7377668023109436, -0.08398907631635666, 
297, 3357720374, -133.78204345703125, 2.2036149501800537, 23.131376266479492, -0.40907734632492065, -7.482374668121338, -7.052216053009033, 1.5550272464752197, -1.008406639099121, -0.11495668441057205, 
298, 3357728707, -133.7689971923828, 2.2097809314727783, 23.123872756958008, -0.33660709857940674, -7.348774433135986, -7.118287563323975, 3.3283777236938477, -0.864941418170929, 0.49879878759384155, 
299, 3357737040, -133.75694274902344, 2.216029405593872, 23.111957550048828, -0.30349358916282654, -7.098841190338135, -7.132709503173828, 3.1492319107055664, -0.5132837295532227, 0.9000202417373657, 
300, 3357745373, -133.7548370361328, 2.220717668533325, 23.08948516845703, -0.2825496792793274, -7.094760894775391, -7.203317642211914, 2.085357427597046, 0.5564948320388794, 1.6133382320404053, 
301, 3357753706, -133.77044677734375, 2.223290205001831, 23.061702728271484, -0.323961466550827, -7.20127534866333, -7.157201290130615, -0.09661689400672913, 1.1662033796310425, 1.8966189622879028, 
302, 3357762039, -133.7871856689453, 2.2249228954315186, 23.034530639648438, -0.343906044960022, -7.2364726066589355, -7.08074426651001, -0.15207171440124512, 1.2133333683013916, 1.7391425371170044, 
303, 3357770372, -133.8037567138672, 2.2273974418640137, 23.01043701171875, -0.45994696021080017, -7.282441139221191, -7.005829811096191, -0.22859424352645874, 0.8537480235099792, 1.5825754404067993, 
304, 3357778705, -133.81118774414062, 2.2301955223083496, 22.989574432373047, -0.4908069670200348, -7.3351569175720215, -7.006678581237793, 0.9361874461174011, 0.5678803324699402, 1.3187872171401978, 
305, 3357787038, -133.8074493408203, 2.2306134700775146, 22.967655181884766, -0.49153298139572144, -7.371162414550781, -7.032641887664795, 2.200352191925049, 0.8361895084381104, 1.2242963314056396, 
306, 3357795371, -133.79196166992188, 2.2259106636047363, 22.943449020385742, -0.46674948930740356, -7.19437837600708, -6.978603839874268, 3.7015514373779297, 1.4828721284866333, 0.9464331865310669, 
307, 3357803704, -133.7852783203125, 2.22265362739563, 22.915428161621094, -0.4924982786178589, -7.171499729156494, -6.93405818939209, 2.579904317855835, 1.6691131591796875, 1.4120744466781616, 
308, 3357812037, -133.78565979003906, 2.2231006622314453, 22.890413284301758, -0.5089012980461121, -7.254211902618408, -6.954123497009277, 1.799720048904419, 1.1244264841079712, 1.4573603868484497, 
309, 3357820370, -133.78123474121094, 2.2232158184051514, 22.87106704711914, -0.4986940622329712, -7.25847053527832, -6.956485271453857, 2.271380662918091, 0.6387293338775635, 0.9846752882003784, 
310, 3357828703, -133.77862548828125, 2.223670244216919, 22.855545043945312, -0.44901204109191895, -7.196218967437744, -6.970635414123535, 2.1145575046539307, 0.3025297224521637, 0.668890118598938, 
311, 3357837036, -133.7750244140625, 2.224283218383789, 22.843704223632812, -0.4688226282596588, -7.137854099273682, -6.981367588043213, 2.1346261501312256, -0.05186882242560387, 0.40597277879714966, 
312, 3357845369, -133.78013610839844, 2.2257134914398193, 22.832576751708984, -0.5071723461151123, -7.151998996734619, -7.007583141326904, 1.1669973134994507, -0.1617795079946518, 0.38765862584114075, 
313, 3357853702, -133.78598022460938, 2.225989580154419, 22.822858810424805, -0.5044471025466919, -7.201653957366943, -7.020036220550537, 0.9928206205368042, -0.20629705488681793, 0.1982925981283188, 
314, 3357862035, -133.78909301757812, 2.2261581420898438, 22.813383102416992, -0.4710075557231903, -7.189516544342041, -6.996883392333984, 1.40041983127594, -0.1958976536989212, 0.14511744678020477, 
315, 3357870368, -133.79232788085938, 2.225844144821167, 22.801042556762695, -0.5102124214172363, -7.212868690490723, -7.06061315536499, 1.316686987876892, 0.06863334029912949, 0.36463144421577454, 
316, 3357878701, -133.80039978027344, 2.225774049758911, 22.789281845092773, -0.448225736618042, -7.1762542724609375, -7.016717433929443, 0.8159542083740234, 0.018634354695677757, 0.309868186712265, 
317, 3357887034, -133.81065368652344, 2.224061965942383, 22.774545669555664, -0.4528751075267792, -7.15371561050415, -7.0576887130737305, 0.48522326350212097, 0.3906298577785492, 0.4449320435523987, 
318, 3357895367, -133.82778930664062, 2.2224605083465576, 22.75290870666504, -0.47055691480636597, -7.227683067321777, -7.066915988922119, -0.22694210708141327, 1.00383460521698, 0.9991984367370605, 
319, 3357903700, -133.84429931640625, 2.219359874725342, 22.72657585144043, -0.43594253063201904, -7.293107986450195, -7.060610294342041, -0.20983178913593292, 1.510791540145874, 1.2884855270385742, 
320, 3357912033, -133.85784912109375, 2.2178468704223633, 22.701595306396484, -0.43809884786605835, -7.317521572113037, -6.995001316070557, 0.22057697176933289, 1.2839006185531616, 1.2848740816116333, 
321, 3357920366, -133.8697509765625, 2.223318099975586, 22.683618545532227, -0.449420303106308, -7.3950371742248535, -6.841007709503174, 0.30279865860939026, 0.07388424873352051, 1.3371013402938843, 
322, 3357928699, -133.87442016601562, 2.2327842712402344, 22.67772102355957, -0.43621134757995605, -7.519157886505127, -6.979861736297607, 1.19896399974823, -1.281198501586914, 0.6497947573661804, 
323, 3357937032, -133.86688232421875, 2.2442843914031982, 22.678268432617188, -0.41619443893432617, -7.377442836761475, -7.125977039337158, 2.549013137817383, -2.0282628536224365, 0.31993457674980164, 
324, 3357945365, -133.8596954345703, 2.257519245147705, 22.678102493286133, -0.37987715005874634, -7.0604729652404785, -7.181876182556152, 2.5905086994171143, -2.0898399353027344, 0.5003101229667664, 
325, 3357953698, -133.86968994140625, 2.2703640460968018, 22.672229766845703, -0.3810332119464874, -7.080160617828369, -7.1902174949646, 0.4769498109817505, -1.58685302734375, 0.9677186012268066, 
326, 3357962031, -133.89039611816406, 2.282945394515991, 22.663301467895508, -0.4292043447494507, -7.187979221343994, -7.173271179199219, -0.7147396206855774, -1.2770233154296875, 1.1706089973449707, 
327, 3357970364, -133.91012573242188, 2.2910685539245605, 22.6518611907959, -0.4546490013599396, -7.350876331329346, -7.142199516296387, -0.6649967432022095, -0.7139967083930969, 1.0234038829803467, 
328, 3357978697, -133.920654296875, 2.296172857284546, 22.638378143310547, -0.4784107506275177, -7.381168842315674, -7.1022796630859375, 0.5321741700172424, -0.2633143365383148, 0.9037342667579651, 
329, 3357987030, -133.92539978027344, 2.300638198852539, 22.622854232788086, -0.4365663528442383, -7.239907741546631, -7.1130805015563965, 1.1548433303833008, -0.05610797554254532, 1.0472122430801392, 
330, 3357995363, -133.93345642089844, 2.307335615158081, 22.60163116455078, -0.41996636986732483, -7.259313583374023, -7.098850250244141, 0.864288330078125, 0.2720871865749359, 1.6850451231002808, 
331, 3358003696, -133.93714904785156, 2.314195394515991, 22.582372665405273, -0.40724480152130127, -7.345552444458008, -7.083576679229736, 1.2984240055084229, 0.06543155759572983, 1.564222812652588, 
332, 3358012029, -133.93206787109375, 2.320939540863037, 22.56816864013672, -0.42428240180015564, -7.270395278930664, -7.037398338317871, 2.407878875732422, -0.3359306752681732, 1.1072393655776978, 
333, 3358020362, -133.92515563964844, 2.3268492221832275, 22.558164596557617, -0.4398142397403717, -7.235483646392822, -6.9806365966796875, 2.5281126499176025, -0.655109703540802, 0.7118580341339111, 
334, 3358028695, -133.92002868652344, 2.3317172527313232, 22.551376342773438, -0.49200981855392456, -7.270744323730469, -6.963917255401611, 2.3753230571746826, -0.82042396068573, 0.32749080657958984, 
335, 3358037028, -133.91329956054688, 2.3392674922943115, 22.5506591796875, -0.5110942721366882, -7.246177673339844, -6.894700050354004, 2.460669994354248, -1.5912843942642212, 0.08249064534902573, 
336, 3358045361, -133.90338134765625, 2.3477070331573486, 22.554227828979492, -0.5145872831344604, -7.167325019836426, -6.908146858215332, 2.9002745151519775, -2.013906717300415, -0.22516193985939026, 
337, 3358053694, -133.8944549560547, 2.3534231185913086, 22.559856414794922, -0.4966709613800049, -7.180771350860596, -6.951859951019287, 2.6917872428894043, -1.98704993724823, -0.6050338745117188, 
338, 3358062027, -133.8847198486328, 2.3552377223968506, 22.565797805786133, -0.4861588776111603, -6.998294353485107, -6.962095260620117, 2.8668606281280518, -1.6669745445251465, -0.997085452079773, 
339, 3358070360, -133.88363647460938, 2.353504180908203, 22.56623649597168, -0.43105679750442505, -6.8312087059021, -7.009008884429932, 1.7775381803512573, -0.9207804799079895, -0.8168891668319702, 
340, 3358078693, -133.89710998535156, 2.3527181148529053, 22.56315040588379, -0.3767259418964386, -6.893566608428955, -6.919195175170898, 0.12654711306095123, -0.6694536209106445, -0.4715580344200134, 
341, 3358087026, -133.92300415039062, 2.3522965908050537, 22.560787200927734, -0.34465911984443665, -6.95082950592041, -6.9664764404296875, -1.447895884513855, -0.7869461178779602, -0.4716348648071289, 
342, 3358095359, -133.9508514404297, 2.349743366241455, 22.55891227722168, -0.377861887216568, -7.053670406341553, -7.033504486083984, -1.6031436920166016, -0.6281123161315918, -0.722500741481781, 
343, 3358103692, -133.97544860839844, 2.3413500785827637, 22.554872512817383, -0.33400198817253113, -7.032618045806885, -7.054312705993652, -1.284220814704895, 0.022220348939299583, -1.0202662944793701, 
344, 3358112025, -134.0059814453125, 2.3299050331115723, 22.548261642456055, -0.3293704688549042, -7.035931587219238, -7.0898027420043945, -1.9006786346435547, 0.5210575461387634, -1.09605872631073, 
345, 3358120358, -134.0430450439453, 2.3165364265441895, 22.53534507751465, -0.3371993899345398, -7.058053016662598, -7.133684158325195, -2.7357027530670166, 1.2032414674758911, -0.7086433172225952, 
346, 3358128691, -134.08912658691406, 2.3005197048187256, 22.515480041503906, -0.3627084791660309, -7.176609992980957, -7.159883975982666, -3.7035112380981445, 2.0432348251342773, -0.3851356506347656, 
347, 3358137024, -134.1368408203125, 2.2809832096099854, 22.48729705810547, -0.32955610752105713, -7.175891876220703, -7.159919738769531, -3.9424149990081787, 3.0320467948913574, 0.03863907232880592, 
348, 3358145357, -134.20162963867188, 2.258371353149414, 22.453611373901367, -0.37894752621650696, -7.232466220855713, -7.159633159637451, -5.880797863006592, 3.7844393253326416, 0.20894812047481537, 
349, 3358153690, -134.2714080810547, 2.2303929328918457, 22.41278839111328, -0.40082892775535583, -7.274564266204834, -7.156031131744385, -6.53365421295166, 4.824019432067871, 0.37859123945236206, 
350, 3358162023, -134.34632873535156, 2.203145742416382, 22.37320327758789, -0.4514484107494354, -7.388624668121338, -7.029626846313477, -7.075214385986328, 4.675020217895508, 0.3177317678928375, 
351, 3358170356, -134.41127014160156, 2.175477981567383, 22.3419246673584, -0.4954838454723358, -7.451878070831299, -6.9960761070251465, -6.000877857208252, 3.977468490600586, -0.37980788946151733, 
352, 3358178689, -134.46371459960938, 2.152073860168457, 22.319364547729492, -0.5323534607887268, -7.3494648933410645, -7.009134769439697, -4.458644866943359, 2.8931665420532227, -0.7694773077964783, 
353, 3358187022, -134.5095672607422, 2.1330978870391846, 22.306041717529297, -0.5134044289588928, -7.244831562042236, -7.020630359649658, -3.795184373855591, 1.7103266716003418, -1.133865475654602, 
354, 3358195355, -134.5518798828125, 2.119828939437866, 22.29612159729004, -0.5310587286949158, -7.270058631896973, -7.054072380065918, -3.3026485443115234, 0.9605211019515991, -0.9592787623405457, 
355, 3358203688, -134.58314514160156, 2.1114728450775146, 22.288991928100586, -0.5527022480964661, -7.285114288330078, -7.045531272888184, -2.0707571506500244, 0.28760939836502075, -0.7451693415641785, 
356, 3358212021, -134.61148071289062, 2.1099934577941895, 22.285642623901367, -0.5607554912567139, -7.20200777053833, -7.097992897033691, -1.6562676429748535, -0.5919449925422668, -0.500988781452179, 
357, 3358220354, -134.6324920654297, 2.1111557483673096, 22.282133102416992, -0.5706609487533569, -7.232490062713623, -7.077702522277832, -0.8590757846832275, -0.824189305305481, -0.23521552979946136, 
358, 3358228687, -134.6495361328125, 2.1145293712615967, 22.281070709228516, -0.5467633008956909, -7.1800665855407715, -7.09535551071167, -0.3113154172897339, -1.1965433359146118, -0.2838056683540344, 
359, 3358237020, -134.6669158935547, 2.117811918258667, 22.2783145904541, -0.5702173113822937, -7.10545539855957, -7.13340950012207, -0.4257342219352722, -1.0667561292648315, -0.11833778023719788, 
360, 3358245353, -134.69317626953125, 2.1195478439331055, 22.272018432617188, -0.5735006332397461, -7.081293106079102, -7.145697116851807, -1.3954379558563232, -0.6112325191497803, 0.01876242831349373, 
361, 3358253686, -134.72377014160156, 2.1237025260925293, 22.25952911376953, -0.5540416240692139, -7.124148368835449, -7.152567386627197, -1.9669939279556274, -0.31390243768692017, 0.7772767543792725, 
362, 3358262019, -134.7558135986328, 2.131457567214966, 22.247196197509766, -0.5337890982627869, -7.202114105224609, -7.055959224700928, -2.0629703998565674, -0.6048033237457275, 1.0404374599456787, 
363, 3358270352, -134.78500366210938, 2.1409494876861572, 22.238494873046875, -0.5427270531654358, -7.388079643249512, -7.076366901397705, -1.8158698081970215, -1.0881695747375488, 0.912468671798706, 
364, 3358278685, -134.80311584472656, 2.1496245861053467, 22.23373031616211, -0.5134954452514648, -7.369051933288574, -7.18210506439209, -0.4245431125164032, -1.327214241027832, 0.4802156686782837, 
365, 3358287018, -134.81301879882812, 2.155240058898926, 22.2287654876709, -0.47125789523124695, -7.227110862731934, -7.221975326538086, 0.4820086359977722, -1.078858733177185, 0.26836031675338745, 
366, 3358295351, -134.82351684570312, 2.1601219177246094, 22.220932006835938, -0.47474855184555054, -7.233348369598389, -7.247668743133545, 0.5018725395202637, -0.7438886761665344, 0.41655150055885315, 
367, 3358303684, -134.83135986328125, 2.164098024368286, 22.213533401489258, -0.45240315794944763, -7.356820583343506, -7.179788112640381, 0.7411350607872009, -0.7330281734466553, 0.3326649069786072, 
368, 3358312017, -134.8328399658203, 2.166348934173584, 22.211868286132812, -0.4922485649585724, -7.380626678466797, -7.134834289550781, 1.5551553964614868, -1.0462646484375, -0.32950150966644287, 
369, 3358320350, -134.82632446289062, 2.1670732498168945, 22.218034744262695, -0.5589137673377991, -7.369988918304443, -7.139046669006348, 2.4034218788146973, -1.612723469734192, -1.0906285047531128, 
370, 3358328683, -134.81103515625, 2.1677472591400146, 22.230119705200195, -0.577905535697937, -7.305383682250977, -7.140331268310547, 3.50327205657959, -2.0817458629608154, -1.6254538297653198, 
371, 3358337016, -134.78944396972656, 2.1665589809417725, 22.243249893188477, -0.5496755242347717, -7.178367614746094, -7.162922382354736, 4.182881832122803, -2.042722702026367, -1.83929443359375, 
372, 3358345349, -134.77108764648438, 2.1650447845458984, 22.25286865234375, -0.5695965886116028, -7.047491073608398, -7.1864213943481445, 3.878392219543457, -1.689489483833313, -1.6069859266281128, 
373, 3358353682, -134.7611846923828, 2.1627466678619385, 22.25759506225586, -0.5500628352165222, -6.867824554443359, -7.165301322937012, 2.8151707649230957, -1.2339401245117188, -1.2276647090911865, 
374, 3358362015, -134.76959228515625, 2.161532402038574, 22.257715225219727, -0.5571921467781067, -6.9091386795043945, -7.14335823059082, 0.7155592441558838, -0.9039135575294495, -0.7772766947746277, 
375, 3358370348, -134.78857421875, 2.161113977432251, 22.258398056030273, -0.5910394191741943, -6.98148250579834, -7.065356731414795, -0.6342852711677551, -1.0500555038452148, -0.7247034907341003, 
376, 3358378681, -134.8147735595703, 2.164806604385376, 22.266563415527344, -0.5415993928909302, -6.95509147644043, -7.011701583862305, -1.4566816091537476, -2.0040066242218018, -1.0407320261001587, 
377, 3358387014, -134.8472442626953, 2.17315411567688, 22.285673141479492, -0.571895956993103, -7.089722633361816, -7.102816581726074, -2.333892583847046, -3.354952573776245, -1.5358552932739258, 
378, 3358395347, -134.87161254882812, 2.1840932369232178, 22.310327529907227, -0.5282378792762756, -7.187478542327881, -7.212655067443848, -1.310501217842102, -4.018310070037842, -1.8203014135360718, 
379, 3358403680, -134.88563537597656, 2.1934549808502197, 22.33777618408203, -0.4908994138240814, -7.147254467010498, -7.2382402420043945, -0.16270165145397186, -4.150838375091553, -2.157512664794922, 
380, 3358412013, -134.90591430664062, 2.205350875854492, 22.361831665039062, -0.47192803025245667, -7.007826328277588, -7.257089138031006, -0.8171453475952148, -4.045205116271973, -1.6911799907684326, 
381, 3358420346, -134.94044494628906, 2.2164127826690674, 22.377471923828125, -0.48849818110466003, -7.172379970550537, -7.284396648406982, -2.569645881652832, -3.290302276611328, -1.0159374475479126, 
382, 3358428679, -134.96951293945312, 2.226703643798828, 22.387575149536133, -0.4893084168434143, -7.328510761260986, -7.353652000427246, -1.8105677366256714, -2.7251241207122803, -0.6476559042930603, 
383, 3358437012, -134.98965454101562, 2.2349374294281006, 22.392648696899414, -0.5073896646499634, -7.324470043182373, -7.335598468780518, -0.793452262878418, -2.155181884765625, -0.3629281222820282, 
384, 3358445345, -135.01507568359375, 2.243642568588257, 22.397083282470703, -0.5304483771324158, -7.302643775939941, -7.307620525360107, -1.3441325426101685, -2.1084868907928467, -0.30393850803375244, 
385, 3358453678, -135.040283203125, 2.2561850547790527, 22.401647567749023, -0.5320138931274414, -7.264132022857666, -7.280346870422363, -1.4008681774139404, -2.477050304412842, 0.04601597413420677, 
386, 3358462011, -135.0666961669922, 2.2720439434051514, 22.40553855895996, -0.5174198746681213, -7.160902500152588, -7.346820831298828, -1.4617788791656494, -2.6708219051361084, 0.34611237049102783, 
387, 3358470344, -135.0974578857422, 2.2902650833129883, 22.409988403320312, -0.5575183033943176, -7.0886993408203125, -7.2814412117004395, -2.0647380352020264, -2.9489927291870117, 0.5361700057983398, 
388, 3358478677, -135.13092041015625, 2.3111517429351807, 22.41126823425293, -0.5891167521476746, -7.213369846343994, -7.340224742889404, -2.297724962234497, -2.8782713413238525, 0.9929229617118835, 
389, 3358487010, -135.15756225585938, 2.330939292907715, 22.416460037231445, -0.5804826021194458, -7.262571334838867, -7.307346820831299, -1.573456883430481, -3.148297071456909, 0.6030231714248657, 
390, 3358495343, -135.18362426757812, 2.353127956390381, 22.42640495300293, -0.6379480957984924, -7.128262996673584, -7.205719947814941, -1.4532235860824585, -3.7199037075042725, 0.3617370128631592, 
391, 3358503676, -135.21884155273438, 2.381791830062866, 22.437047958374023, -0.7047349810600281, -7.2623186111450195, -7.216508388519287, -2.63083815574646, -4.36574125289917, 0.8882120251655579, 
392, 3358512009, -135.24075317382812, 2.4109768867492676, 22.448081970214844, -0.7411718964576721, -7.368697643280029, -7.348119258880615, -0.961712121963501, -4.412103176116943, 0.8568602800369263, 
393, 3358520342, -135.2514190673828, 2.4375317096710205, 22.454378128051758, -0.6525854468345642, -7.0733561515808105, -7.411821365356445, 0.3361484110355377, -3.818826198577881, 1.076886534690857, 
394, 3358528675, -135.27569580078125, 2.4597413539886475, 22.44978141784668, -0.6142464876174927, -6.767925262451172, -7.452962398529053, -1.1655374765396118, -2.495326042175293, 1.597687840461731, 
395, 3358537008, -135.32293701171875, 2.480238914489746, 22.424467086791992, -0.6752877235412598, -6.907694339752197, -7.388062477111816, -3.8894832134246826, -0.6389855742454529, 3.2572598457336426, 
396, 3358545341, -135.37879943847656, 2.5016653537750244, 22.39814567565918, -0.729483962059021, -7.143259048461914, -7.2584991455078125, -4.841756343841553, -0.600064754486084, 3.381373882293701, 
397, 3358553674, -135.4271697998047, 2.527621030807495, 22.379539489746094, -0.8405404090881348, -7.298458576202393, -7.162885665893555, -4.058549880981445, -1.6775275468826294, 3.1442627906799316, 
398, 3358562007, -135.4615936279297, 2.5580756664276123, 22.375947952270508, -0.9745004773139954, -7.331147193908691, -7.124083518981934, -2.3853514194488525, -3.290942668914795, 2.199763298034668, 
399, 3358570340, -135.4851531982422, 2.5924129486083984, 22.383865356445312, -1.0308701992034912, -7.126761436462402, -7.117725849151611, -1.2222343683242798, -4.62856912612915, 1.5815635919570923, 
400, 3358578673, -135.50865173339844, 2.6303000450134277, 22.39884376525879, -1.0986839532852173, -7.01135778427124, -7.109777927398682, -1.178434133529663, -5.487850189208984, 1.2300852537155151, 
401, 3358587006, -135.5310821533203, 2.671063184738159, 22.415748596191406, -1.1431883573532104, -6.991198539733887, -7.107180595397949, -1.1364524364471436, -5.9363298416137695, 1.351906657218933, 
402, 3358595339, -135.5570068359375, 2.712218761444092, 22.433990478515625, -1.2113808393478394, -6.922624588012695, -7.110871315002441, -1.4935659170150757, -6.041962146759033, 1.2192246913909912, 
403, 3358603672, -135.58493041992188, 2.750509738922119, 22.4476261138916, -1.221003770828247, -6.880888938903809, -7.196283340454102, -1.7787035703659058, -5.448710918426514, 1.4199379682540894, 
404, 3358612005, -135.6202850341797, 2.789520740509033, 22.457931518554688, -1.1541498899459839, -6.728278636932373, -7.223264217376709, -2.578943967819214, -5.18847131729126, 1.7110438346862793, 
405, 3358620338, -135.67459106445312, 2.8246748447418213, 22.460845947265625, -1.2069945335388184, -6.8378095626831055, -7.224451541900635, -4.886837482452393, -4.28759241104126, 2.0688745975494385, 
406, 3358628671, -135.7318878173828, 2.8687546253204346, 22.469667434692383, -1.30713951587677, -6.987759590148926, -7.113150596618652, -5.203635215759277, -5.4996843338012695, 2.2515811920166016, 
407, 3358637004, -135.79592895507812, 2.923689365386963, 22.486522674560547, -1.2151191234588623, -6.9961466789245605, -7.02463960647583, -6.139834403991699, -7.158154010772705, 2.5209403038024902, 
408, 3358645337, -135.8469696044922, 2.9886043071746826, 22.516366958618164, -1.2928502559661865, -7.18300724029541, -7.305495738983154, -4.5873565673828125, -9.049485206604004, 2.174917697906494, 
409, 3358653670, -135.9011688232422, 3.055185556411743, 22.558141708374023, -1.1654658317565918, -7.075189113616943, -7.263901710510254, -5.118877410888672, -10.247820854187012, 1.3395349979400635, 
410, 3358662003, -135.96153259277344, 3.1265952587127686, 22.611495971679688, -1.1483633518218994, -7.172312259674072, -7.402233600616455, -5.868042945861816, -11.570874214172363, 0.6740515232086182, 
411, 3358670336, -136.02239990234375, 3.2022364139556885, 22.673494338989258, -1.140614628791809, -7.136166095733643, -7.486919403076172, -6.0672712326049805, -12.716370582580566, 0.3342018127441406, 
412, 3358678669, -136.08425903320312, 3.284287691116333, 22.739147186279297, -1.1989240646362305, -7.192382335662842, -7.5388641357421875, -6.14887809753418, -13.513921737670898, 0.4740299582481384, 
413, 3358687002, -136.1432342529297, 3.36861252784729, 22.806039810180664, -1.2626475095748901, -7.2929182052612305, -7.588891506195068, -5.89378547668457, -13.873799324035645, 0.6096572875976562, 
414, 3358695335, -136.19577026367188, 3.4571456909179688, 22.873064041137695, -1.3062915802001953, -7.228695869445801, -7.557665824890137, -5.06273078918457, -14.186164855957031, 0.8676950931549072, 
415, 3358703668, -136.2534942626953, 3.550708770751953, 22.93365478515625, -1.3430129289627075, -7.301583290100098, -7.571934223175049, -5.724590301513672, -14.15346908569336, 1.8975284099578857, 
416, 3358712001, -136.30990600585938, 3.6504898071289062, 22.990432739257812, -1.2730158567428589, -7.43354606628418, -7.602856636047363, -5.4769392013549805, -14.312673568725586, 2.659052610397339, 
417, 3358720334, -136.3557586669922, 3.757969617843628, 23.043909072875977, -1.2020155191421509, -7.344547748565674, -7.566827774047852, -4.266640663146973, -14.777033805847168, 3.6430492401123047, 
418, 3358728667, -136.39102172851562, 3.873673915863037, 23.09465980529785, -1.1513298749923706, -7.314212322235107, -7.689631938934326, -2.921060562133789, -15.199219703674316, 4.477266311645508, 
419, 3358737000, -136.42173767089844, 3.9966681003570557, 23.138303756713867, -1.1013762950897217, -7.415561676025391, -7.728665828704834, -2.3970963954925537, -15.318074226379395, 5.763615131378174, 
420, 3358745333, -136.44497680664062, 4.127193450927734, 23.176088333129883, -1.0652129650115967, -7.420427322387695, -7.7548322677612305, -1.388906478881836, -15.42033576965332, 6.8111724853515625, 
421, 3358753666, -136.4616241455078, 4.2611799240112305, 23.208105087280273, -1.0678677558898926, -7.435166358947754, -7.924255847930908, -0.6310837268829346, -15.319802284240723, 7.670094966888428, 
422, 3358761999, -136.4755401611328, 4.396209239959717, 23.226985931396484, -1.0748348236083984, -7.427367687225342, -7.91167688369751, -0.12626539170742035, -14.255694389343262, 8.816139221191406, 
423, 3358770332, -136.4879913330078, 4.527619361877441, 23.235994338989258, -1.012341856956482, -7.527566909790039, -7.980042457580566, 0.0726291686296463, -13.2040376663208, 9.448310852050781, 
424, 3358778665, -136.4890594482422, 4.655305862426758, 23.22903060913086, -0.9686557650566101, -7.478916645050049, -8.080649375915527, 1.6520544290542603, -11.490010261535645, 10.444757461547852, 
425, 3358786998, -136.48605346679688, 4.77824592590332, 23.206851959228516, -0.9370844960212708, -7.26161003112793, -8.006844520568848, 2.22865629196167, -9.899544715881348, 11.4512939453125, 
426, 3358795331, -136.4902801513672, 4.896834373474121, 23.17442512512207, -0.9408197999000549, -7.445610523223877, -7.93292760848999, 1.537392020225525, -8.602055549621582, 11.9009370803833, 
427, 3358803664, -136.4832763671875, 5.006488800048828, 23.134552001953125, -0.9308649897575378, -7.523528575897217, -7.998354434967041, 2.903592109680176, -7.287328720092773, 11.88717269897461, 
428, 3358811997, -136.47067260742188, 5.107023239135742, 23.087356567382812, -0.938615083694458, -7.2813720703125, -7.860795974731445, 3.7282421588897705, -5.814816474914551, 11.690247535705566, 
429, 3358820330, -136.468505859375, 5.202696323394775, 23.03548240661621, -0.9443777799606323, -7.20473575592041, -7.7946295738220215, 2.469353437423706, -5.080020904541016, 11.772624015808105, 
430, 3358828663, -136.46360778808594, 5.291266918182373, 22.984573364257812, -1.0059205293655396, -7.45979642868042, -7.7782368659973145, 2.86470890045166, -4.468506336212158, 11.021050453186035, 
431, 3358836996, -136.4407958984375, 5.370523452758789, 22.939987182617188, -1.0192760229110718, -7.412487506866455, -7.676191329956055, 4.882572650909424, -4.248121738433838, 9.784958839416504, 
432, 3358845329, -136.4120330810547, 5.446283340454102, 22.90058135986328, -1.0109566450119019, -7.326569557189941, -7.590566635131836, 5.616292953491211, -4.295993804931641, 8.96773624420166, 
433, 3358853662, -136.3765106201172, 5.517326354980469, 22.869789123535156, -1.0297585725784302, -7.348240852355957, -7.589752674102783, 6.264307498931885, -4.662559986114502, 7.912276268005371, 
434, 3358861995, -136.3326873779297, 5.582164764404297, 22.843769073486328, -1.0386250019073486, -7.343411922454834, -7.613224983215332, 7.2789130210876465, -4.438281536102295, 6.912168025970459, 
435, 3358870328, -136.2836151123047, 5.635175704956055, 22.823883056640625, -0.973220944404602, -7.219605445861816, -7.590741157531738, 7.773037910461426, -3.9855754375457764, 5.4818949699401855, 
436, 3358878661, -136.24192810058594, 5.681384563446045, 22.809539794921875, -0.9023044109344482, -7.132891654968262, -7.491296768188477, 6.887808322906494, -3.7771267890930176, 4.364268779754639, 
437, 3358886994, -136.2109832763672, 5.719853401184082, 22.804628372192383, -0.855409562587738, -7.213531017303467, -7.5100603103637695, 5.42198371887207, -3.9529426097869873, 2.9866583347320557, 
438, 3358895327, -136.1804656982422, 5.753265857696533, 22.808332443237305, -0.7978482842445374, -7.291094779968262, -7.55305814743042, 5.332691192626953, -4.155063629150391, 1.7500284910202026, 
439, 3358903660, -136.14212036132812, 5.774917125701904, 22.82413673400879, -0.6699223518371582, -7.117863655090332, -7.580724239349365, 6.06149435043335, -4.206600666046143, -0.19159449636936188, 
440, 3358911993, -136.11782836914062, 5.790453910827637, 22.8419189453125, -0.5843510031700134, -6.964344024658203, -7.581597328186035, 4.414165496826172, -3.773181915283203, -0.9438334107398987, 
441, 3358920326, -136.10256958007812, 5.797905921936035, 22.867446899414062, -0.532089352607727, -7.1273274421691895, -7.570554256439209, 3.168903350830078, -3.7829153537750244, -2.2078189849853516, 
442, 3358928659, -136.08709716796875, 5.79545259475708, 22.903583526611328, -0.5126925110816956, -7.28372859954834, -7.732446670532227, 3.1365139484405518, -3.738614559173584, -4.0141215324401855, 
443, 3358936992, -136.06332397460938, 5.7782158851623535, 22.945737838745117, -0.43421444296836853, -7.293326377868652, -7.778014659881592, 3.9908902645111084, -3.027449131011963, -5.691226959228516, 
444, 3358945325, -136.03379821777344, 5.750717639923096, 22.98987579345703, -0.29094478487968445, -7.216281414031982, -7.85429573059082, 4.726812839508057, -2.245574474334717, -6.782701015472412, 
445, 3358953658, -136.00811767578125, 5.709695339202881, 23.030996322631836, -0.18825453519821167, -7.072415828704834, -7.975806713104248, 4.237709045410156, -0.8916571736335754, -7.582761764526367, 
446, 3358961991, -135.98800659179688, 5.654402732849121, 23.06379508972168, -0.053799159824848175, -7.011759281158447, -8.00127124786377, 3.7453773021698, 1.0854159593582153, -8.119634628295898, 
447, 3358970324, -135.97975158691406, 5.585775375366211, 23.089967727661133, -0.018617767840623856, -7.115638732910156, -7.916429042816162, 2.330883026123047, 2.7255983352661133, -8.601312637329102, 
448, 3358978657, -135.98370361328125, 5.514063835144043, 23.11093521118164, -0.0404997356235981, -7.176321506500244, -7.844635486602783, 1.0026054382324219, 3.4742772579193115, -8.471038818359375, 
449, 3358986990, -135.9984130859375, 5.446078777313232, 23.134151458740234, -0.007974499836564064, -7.114593982696533, -7.705875873565674, -0.3808324635028839, 2.9163472652435303, -8.292839050292969, 
450, 3358995323, -136.02020263671875, 5.390069961547852, 23.156475067138672, -0.006147605367004871, -7.224312782287598, -7.683846950531006, -1.1472872495651245, 2.003455877304077, -7.272830009460449, 
451, 3359003656, -136.031982421875, 5.342580795288086, 23.18221664428711, -0.1268375813961029, -7.254166126251221, -7.7293829917907715, -0.05350813642144203, 0.9412845969200134, -6.799861907958984, 
452, 3359011989, -136.0374298095703, 5.302112102508545, 23.206729888916016, -0.15471386909484863, -7.0083770751953125, -7.747107982635498, 0.7986646890640259, 0.4771036207675934, -6.160096168518066, 
453, 3359020322, -136.052978515625, 5.271788597106934, 23.2176513671875, -0.20166562497615814, -6.9096760749816895, -7.7964959144592285, -0.3391836881637573, 0.6881648302078247, -4.09622859954834, 
454, 3359028655, -136.0771484375, 5.252978801727295, 23.217317581176758, -0.2047102302312851, -6.838783264160156, -7.853318691253662, -1.1746689081192017, 0.6649071574211121, -2.212352752685547, 
455, 3359036988, -136.11129760742188, 5.247775077819824, 23.19674301147461, -0.31882408261299133, -6.767232418060303, -7.973935604095459, -2.222444534301758, 1.128780722618103, 0.7077084183692932, 
456, 3359045321, -136.1588592529297, 5.25860071182251, 23.157726287841797, -0.40818098187446594, -6.8354973793029785, -7.963263034820557, -3.5512855052948, 1.3000760078430176, 3.590116500854492, 
457, 3359053654, -136.2197723388672, 5.290583610534668, 23.106765747070312, -0.5004402995109558, -6.752243995666504, -7.78373384475708, -5.100588321685791, 0.420163094997406, 6.419887542724609, 
458, 3359061987, -136.31008911132812, 5.355355262756348, 23.052513122558594, -0.6975027918815613, -6.932265758514404, -7.549753189086914, -8.499188423156738, -2.131284236907959, 9.390653610229492, 
459, 3359070320, -136.40989685058594, 5.452429294586182, 23.00541114807129, -1.0147076845169067, -7.176642894744873, -7.4294514656066895, -9.797536849975586, -5.573082447052002, 11.480814933776855, 
460, 3359078653, -136.5032501220703, 5.5856099128723145, 22.956836700439453, -1.1688424348831177, -7.440837383270264, -7.479014873504639, -8.905265808105469, -8.586264610290527, 14.550862312316895, 
461, 3359086986, -136.56944274902344, 5.75026798248291, 22.911056518554688, -1.24204683303833, -7.363853931427002, -7.418570518493652, -5.753766059875488, -11.607721328735352, 16.93050193786621, 
462, 3359095319, -136.6336212158203, 5.950623989105225, 22.858911514282227, -1.2873810529708862, -7.264777183532715, -7.390125274658203, -5.331401348114014, -14.194598197937012, 20.373046875, 
463, 3359103652, -136.69448852539062, 6.186005115509033, 22.800701141357422, -1.3223575353622437, -7.607746124267578, -7.474143981933594, -4.919678211212158, -16.803436279296875, 23.806718826293945, 
464, 3359111985, -136.73609924316406, 6.450085163116455, 22.741363525390625, -1.3239065408706665, -7.687193393707275, -7.459186553955078, -2.4777441024780273, -19.218605041503906, 26.212669372558594, 
465, 3359120318, -136.75767517089844, 6.739470481872559, 22.672143936157227, -1.3906430006027222, -7.650478839874268, -7.5956950187683105, 0.013127310201525688, -20.664844512939453, 29.17450714111328, 
466, 3359128651, -136.7636260986328, 7.046834468841553, 22.5928897857666, -1.4328176975250244, -7.578420162200928, -7.665125846862793, 2.1543262004852295, -21.399871826171875, 31.478023529052734, 
467, 3359136984, -136.7700653076172, 7.373016834259033, 22.505786895751953, -1.4911247491836548, -7.407713890075684, -7.5680084228515625, 2.1870875358581543, -22.44196891784668, 33.73715591430664, 
468, 3359145317, -136.7842559814453, 7.718826770782471, 22.408092498779297, -1.6677682399749756, -7.557523250579834, -7.460143566131592, 1.5624581575393677, -23.28066635131836, 36.22208786010742, 
469, 3359153650, -136.79345703125, 8.087493896484375, 22.31829261779785, -1.8439111709594727, -7.63499641418457, -7.2932915687561035, 2.0254108905792236, -25.962970733642578, 37.44068908691406, 
470, 3359161983, -136.78662109375, 8.482043266296387, 22.241107940673828, -1.8974428176879883, -7.796089172363281, -7.14766263961792, 3.8784897327423096, -29.231908798217773, 38.428043365478516, 
471, 3359170316, -136.75567626953125, 8.900884628295898, 22.1834716796875, -2.0370516777038574, -7.76295804977417, -7.093662738800049, 6.407223701477051, -32.96657180786133, 38.77895736694336, 
472, 3359178649, -136.71165466308594, 9.338750839233398, 22.121763229370117, -2.1083109378814697, -7.6176605224609375, -7.202458381652832, 8.1705904006958, -34.249881744384766, 40.665584564208984, 
473, 3359186982, -136.64749145507812, 9.788012504577637, 22.058116912841797, -2.1652324199676514, -7.574001789093018, -7.291565895080566, 10.61832046508789, -35.082603454589844, 41.83859634399414, 
474, 3359195315, -136.57862854003906, 10.249838829040527, 21.996854782104492, -2.227583646774292, -7.532142639160156, -6.893916130065918, 11.25423526763916, -36.3001708984375, 42.65808868408203, 
475, 3359203648, -136.4969024658203, 10.723746299743652, 21.934818267822266, -2.417492151260376, -7.71448278427124, -6.858077049255371, 12.81132984161377, -37.26837158203125, 43.8047981262207, 
476, 3359211981, -136.38165283203125, 11.204301834106445, 21.88808250427246, -2.4403438568115234, -7.539628505706787, -7.0615105628967285, 16.6042537689209, -38.98826217651367, 43.056854248046875, 
477, 3359220314, -136.26266479492188, 11.689762115478516, 21.845144271850586, -2.435065746307373, -7.264821529388428, -6.747735977172852, 16.949419021606445, -39.672203063964844, 43.2549934387207, 
478, 3359228647, -136.13748168945312, 12.173190116882324, 21.80435562133789, -2.4369072914123535, -6.9361162185668945, -6.802305221557617, 17.736059188842773, -39.54851150512695, 42.93537521362305, 
479, 3359236980, -136.0181121826172, 12.650349617004395, 21.760536193847656, -2.4463040828704834, -6.953327655792236, -7.051179885864258, 17.105573654174805, -38.7060661315918, 42.79176712036133, 
480, 3359245313, -135.90277099609375, 13.116320610046387, 21.711578369140625, -2.4099807739257812, -6.734121799468994, -6.852407932281494, 16.845251083374023, -37.207542419433594, 42.31138610839844, 
481, 3359253646, -135.80416870117188, 13.573286056518555, 21.662973403930664, -2.3284125328063965, -6.411698818206787, -6.750220775604248, 14.82731819152832, -36.421756744384766, 41.637306213378906, 
482, 3359261979, -135.7317352294922, 14.021930694580078, 21.61575698852539, -2.3479490280151367, -6.829920768737793, -6.794156074523926, 11.740865707397461, -35.729618072509766, 40.820987701416016, 
483, 3359270312, -135.64349365234375, 14.460644721984863, 21.58977699279785, -2.3032054901123047, -7.001302719116211, -6.597964763641357, 13.006800651550293, -36.5860595703125, 38.3115234375, 
484, 3359278645, -135.54811096191406, 14.89470100402832, 21.578153610229492, -2.261812925338745, -6.619043827056885, -6.6270527839660645, 13.494943618774414, -37.25733947753906, 36.73257064819336, 
485, 3359286978, -135.45806884765625, 15.316739082336426, 21.576871871948242, -2.320565700531006, -6.5994133949279785, -6.652533531188965, 12.492361068725586, -37.04744338989258, 34.97203063964844, 
486, 3359295311, -135.37155151367188, 15.72519588470459, 21.583057403564453, -2.329181432723999, -6.585712432861328, -6.630743503570557, 11.877615928649902, -36.40257263183594, 33.22138977050781, 
487, 3359303644, -135.28298950195312, 16.119247436523438, 21.59551429748535, -2.28753399848938, -6.5101399421691895, -6.58297061920166, 11.867484092712402, -35.66555404663086, 31.594379425048828, 
488, 3359311977, -135.19436645507812, 16.498973846435547, 21.609193801879883, -2.330470085144043, -6.51209020614624, -6.518794059753418, 11.866315841674805, -34.46158218383789, 30.289339065551758, 
489, 3359320310, -135.09918212890625, 16.863737106323242, 21.628610610961914, -2.279313564300537, -6.4011406898498535, -6.463796615600586, 12.403190612792969, -33.630374908447266, 28.66072654724121, 
490, 3359328643, -134.99969482421875, 17.216312408447266, 21.646732330322266, -2.2162256240844727, -6.39634895324707, -6.439910411834717, 12.989922523498535, -32.409603118896484, 27.742568969726562, 
491, 3359336976, -134.8917236328125, 17.551036834716797, 21.66389274597168, -2.2036142349243164, -6.259378910064697, -6.462646007537842, 13.99436092376709, -30.792829513549805, 26.413700103759766, 
492, 3359345309, -134.7911834716797, 17.87100601196289, 21.67165756225586, -2.1817328929901123, -5.919966697692871, -6.437158584594727, 13.471878051757812, -28.70601463317871, 25.927560806274414, 
493, 3359353642, -134.71644592285156, 18.1788387298584, 21.67413902282715, -2.161642074584961, -5.821871757507324, -6.427908897399902, 10.525543212890625, -27.23678970336914, 25.40402603149414, 
494, 3359361975, -134.65794372558594, 18.472612380981445, 21.671640396118164, -2.173369884490967, -5.902975559234619, -6.347612380981445, 8.804827690124512, -25.590740203857422, 24.59228515625, 
495, 3359370308, -134.61166381835938, 18.752944946289062, 21.67148780822754, -2.2006828784942627, -5.965445041656494, -6.254701614379883, 7.20997953414917, -24.649721145629883, 23.320865631103516, 
496, 3359378641, -134.5727081298828, 19.023080825805664, 21.68038558959961, -2.2760159969329834, -5.83721399307251, -6.200143337249756, 6.027751922607422, -24.485958099365234, 21.709003448486328, 
497, 3359386974, -134.5491485595703, 19.280025482177734, 21.705951690673828, -2.388542652130127, -5.739871978759766, -6.061235427856445, 3.46808123588562, -24.72715950012207, 19.305891036987305, 
498, 3359395307, -134.5431671142578, 19.52638053894043, 21.73902702331543, -2.4970381259918213, -5.8588972091674805, -6.145640850067139, 1.0927938222885132, -24.41919708251953, 17.77507781982422, 
499, 3359403640, -134.54159545898438, 19.757736206054688, 21.776708602905273, -2.4937007427215576, -5.79377555847168, -6.1608381271362305, 0.31899991631507874, -23.533977508544922, 16.17158317565918, 
500, 3359411973, -134.5669403076172, 19.97597312927246, 21.80520248413086, -2.4470131397247314, -5.746426105499268, -6.146152973175049, -2.5083396434783936, -21.680530548095703, 15.740213394165039, 
501, 3359420306, -134.61126708984375, 20.180749893188477, 21.81572151184082, -2.4189248085021973, -5.9523606300354, -6.337562084197998, -4.101584434509277, -19.123188018798828, 16.039016723632812, 
502, 3359428639, -134.66357421875, 20.37493324279785, 21.802175521850586, -2.370603561401367, -5.842643737792969, -6.312374591827393, -4.015827655792236, -16.30777359008789, 16.987102508544922, 
503, 3359436972, -134.73355102539062, 20.563791275024414, 21.76823616027832, -2.342466354370117, -5.8286237716674805, -6.210289001464844, -5.324856758117676, -14.254087448120117, 18.163986206054688, 
504, 3359445305, -134.81100463867188, 20.74491310119629, 21.7238712310791, -2.364500045776367, -5.929899215698242, -6.186924457550049, -5.715217113494873, -12.796097755432129, 18.277584075927734, 
505, 3359453638, -134.8842010498047, 20.919179916381836, 21.677473068237305, -2.50464129447937, -5.992616653442383, -6.028548240661621, -5.154726505279541, -12.08458423614502, 17.865936279296875, 
506, 3359461971, -134.9477081298828, 21.08472442626953, 21.637432098388672, -2.661590337753296, -6.07895040512085, -6.009546756744385, -4.1947550773620605, -11.878901481628418, 16.580076217651367, 
507, 3359470304, -134.9970703125, 21.23880386352539, 21.60540008544922, -2.7470571994781494, -5.980196475982666, -6.034973621368408, -2.8871350288391113, -11.556530952453613, 14.984496116638184, 
508, 3359478637, -135.04653930664062, 21.379011154174805, 21.580232620239258, -2.815217971801758, -5.685558795928955, -6.017674922943115, -3.138564109802246, -10.945399284362793, 13.227232933044434, 
509, 3359486970, -135.097412109375, 21.509084701538086, 21.562437057495117, -2.8921093940734863, -5.652349948883057, -5.949735641479492, -3.67799973487854, -10.673965454101562, 11.800006866455078, 
510, 3359495303, -135.14535522460938, 21.63170051574707, 21.548309326171875, -2.9542744159698486, -5.67783260345459, -5.926255702972412, -3.4282610416412354, -10.349664688110352, 10.846489906311035, 
511, 3359503636, -135.1858367919922, 21.74834442138672, 21.537128448486328, -3.0835416316986084, -5.837002754211426, -5.838456153869629, -2.7117793560028076, -10.073542594909668, 10.123502731323242, 
512, 3359511969, -135.2095489501953, 21.856910705566406, 21.531940460205078, -3.1094212532043457, -5.79846715927124, -5.804633140563965, -0.9114569425582886, -9.87182903289795, 8.938714981079102, 
513, 3359520302, -135.23175048828125, 21.960559844970703, 21.530447006225586, -3.0719947814941406, -5.595931053161621, -5.791776657104492, -0.9474963545799255, -9.737407684326172, 8.247977256774902, 
514, 3359528635, -135.26498413085938, 22.05704689025879, 21.52811050415039, -3.070279836654663, -5.5849928855896, -5.791647911071777, -2.180040121078491, -9.076570510864258, 7.687548637390137, 
515, 3359536968, -135.3039093017578, 22.14188003540039, 21.529375076293945, -3.048935651779175, -5.668785572052002, -5.732234954833984, -3.080048084259033, -8.35991096496582, 6.431222915649414, 
516, 3359545301, -135.34996032714844, 22.21308708190918, 21.533554077148438, -3.0684194564819336, -5.787913799285889, -5.751704216003418, -4.012303829193115, -7.440435886383057, 5.029073715209961, 
517, 3359553634, -135.3948211669922, 22.26838493347168, 21.539987564086914, -3.045243501663208, -5.831342697143555, -5.815165042877197, -4.027069568634033, -6.250129222869873, 3.522226572036743, 
518, 3359561967, -135.43580627441406, 22.305648803710938, 21.545331954956055, -3.0079705715179443, -5.806176662445068, -5.776393890380859, -3.4601376056671143, -4.641261577606201, 2.067120313644409, 
519, 3359570300, -135.46519470214844, 22.33340072631836, 21.555212020874023, -3.013554334640503, -5.840810775756836, -5.724829196929932, -2.326810121536255, -4.16878080368042, 0.924622654914856, 
520, 3359578633, -135.47821044921875, 22.35246467590332, 21.57354736328125, -3.019575595855713, -5.812012195587158, -5.6884660720825195, -0.6975652575492859, -4.098315715789795, -0.4951615631580353, 
521, 3359586966, -135.48056030273438, 22.364986419677734, 21.598892211914062, -2.9898297786712646, -5.691704750061035, -5.675300121307373, 0.20934514701366425, -4.068782806396484, -1.5823067426681519, 
522, 3359595299, -135.48292541503906, 22.368366241455078, 21.626277923583984, -2.928999662399292, -5.584524631500244, -5.670849800109863, 0.16466112434864044, -3.4613542556762695, -2.528048515319824, 
523, 3359603632, -135.4871368408203, 22.362470626831055, 21.6538028717041, -2.914405584335327, -5.523660182952881, -5.639615058898926, -0.1114475429058075, -2.6630611419677734, -3.3054146766662598, 
524, 3359611965, -135.4926300048828, 22.34478759765625, 21.678625106811523, -2.884401798248291, -5.557640075683594, -5.748227596282959, -0.09370969235897064, -1.4608182907104492, -4.0967793464660645, 
525, 3359620298, -135.49563598632812, 22.311796188354492, 21.693819046020508, -2.8317058086395264, -5.597931861877441, -5.854120254516602, 0.5928158760070801, 0.6158174276351929, -4.609320163726807, 
526, 3359628631, -135.5046844482422, 22.264699935913086, 21.697172164916992, -2.722259759902954, -5.430091857910156, -5.916115760803223, 0.4623368978500366, 2.7264304161071777, -4.868971347808838, 
527, 3359636964, -135.52676391601562, 22.211055755615234, 21.69243812561035, -2.7021358013153076, -5.362053394317627, -5.858911037445068, -0.7865875959396362, 3.935281753540039, -4.767322063446045, 
528, 3359645297, -135.56228637695312, 22.14967155456543, 21.68019676208496, -2.8208394050598145, -5.56516695022583, -5.9638495445251465, -2.007080078125, 5.163203239440918, -4.82649040222168, 
529, 3359653630, -135.59922790527344, 22.082265853881836, 21.661048889160156, -2.884310245513916, -5.657299041748047, -5.9412126541137695, -1.9188008308410645, 6.242984294891357, -4.771945953369141, 
530, 3359661963, -135.63893127441406, 22.008922576904297, 21.640533447265625, -2.987025499343872, -5.677028179168701, -5.924902439117432, -2.1404922008514404, 6.834441184997559, -5.16238260269165, 
531, 3359670296, -135.6837921142578, 21.9273738861084, 21.618839263916016, -2.992631673812866, -5.769911766052246, -6.038721561431885, -2.7581536769866943, 7.662473201751709, -5.744697093963623, 
532, 3359678629, -135.72500610351562, 21.834428787231445, 21.595369338989258, -2.9315807819366455, -6.014951705932617, -6.174814224243164, -2.196139097213745, 8.757162094116211, -6.554555416107178, 
533, 3359686962, -135.7603759765625, 21.731735229492188, 21.571304321289062, -2.869744062423706, -6.211005687713623, -6.310566425323486, -1.5257887840270996, 9.670846939086914, -7.312428951263428, 
534, 3359695295, -135.78369140625, 21.621074676513672, 21.547618865966797, -2.724031925201416, -6.117236614227295, -6.478708267211914, -0.04674598202109337, 10.305621147155762, -8.005704879760742, 
535, 3359703628, -135.81402587890625, 21.503814697265625, 21.522220611572266, -2.598512887954712, -6.022992134094238, -6.634208679199219, -0.8677465319633484, 11.03861141204834, -8.408221244812012, 
536, 3359711961, -135.86224365234375, 21.3806095123291, 21.496469497680664, -2.595869302749634, -6.05400276184082, -6.732750415802002, -2.957292318344116, 11.553136825561523, -8.87313175201416, 
537, 3359720294, -135.9227294921875, 21.25312614440918, 21.469139099121094, -2.660135269165039, -6.168828964233398, -6.790547847747803, -4.417687892913818, 12.086066246032715, -9.0828857421875, 
538, 3359728627, -135.9817657470703, 21.123281478881836, 21.440736770629883, -2.857680082321167, -6.508594512939453, -6.8842902183532715, -4.147521495819092, 12.348830223083496, -9.178645133972168, 
539, 3359736960, -136.0331573486328, 20.99021339416504, 21.410518646240234, -2.9980578422546387, -6.502027988433838, -6.91763162612915, -3.2173404693603516, 12.811498641967773, -9.287735939025879, 
540, 3359745293, -136.08473205566406, 20.855194091796875, 21.374542236328125, -3.007143497467041, -6.382843017578125, -7.019077777862549, -2.9418082237243652, 13.399269104003906, -8.964431762695312, 
541, 3359753626, -136.154296875, 20.715267181396484, 21.32759666442871, -3.08368182182312, -6.385697841644287, -7.140489101409912, -4.699188709259033, 14.730046272277832, -8.473959922790527, 
542, 3359761959, -136.2342987060547, 20.569791793823242, 21.268808364868164, -3.1182799339294434, -6.5564069747924805, -7.202844142913818, -5.411060333251953, 16.098642349243164, -7.943259239196777, 
543, 3359770292, -136.31524658203125, 20.418914794921875, 21.204988479614258, -3.09774112701416, -6.842276096343994, -7.2917304039001465, -5.3827056884765625, 17.017656326293945, -7.960164546966553, 
544, 3359778625, -136.38246154785156, 20.265897750854492, 21.14807891845703, -3.0793774127960205, -7.2004265785217285, -7.285686492919922, -3.9827327728271484, 16.634567260742188, -8.662762641906738, 
545, 3359786958, -136.41661071777344, 20.112154006958008, 21.112730026245117, -3.0355470180511475, -7.573225498199463, -7.465643882751465, -0.9863276481628418, 15.082037925720215, -10.471256256103516, 
546, 3359795291, -136.4139404296875, 19.954639434814453, 21.0987491607666, -2.9796221256256104, -7.419875621795654, -7.662234306335449, 2.604187250137329, 13.703606605529785, -12.508125305175781, 
547, 3359803624, -136.3944549560547, 19.790254592895508, 21.096439361572266, -2.9740371704101562, -7.101408958435059, -7.867915153503418, 4.0805792808532715, 13.44222640991211, -14.044736862182617, 
548, 3359811957, -136.3804168701172, 19.61528968811035, 21.09470558166504, -3.055800199508667, -7.074787139892578, -7.883450508117676, 3.458102226257324, 14.257732391357422, -14.954325675964355, 
549, 3359820290, -136.36073303222656, 19.430137634277344, 21.094026565551758, -3.210339307785034, -7.097380638122559, -7.8177409172058105, 4.039801120758057, 15.110430717468262, -15.905281066894531, 
550, 3359828623, -136.34181213378906, 19.232730865478516, 21.093795776367188, -3.382619619369507, -7.182131767272949, -7.7927565574646, 3.9867682456970215, 16.079179763793945, -16.941904067993164, 
551, 3359836956, -136.32867431640625, 19.03252410888672, 21.096097946166992, -3.420161485671997, -7.10526704788208, -7.618539810180664, 3.1322762966156006, 16.17279624938965, -17.40992546081543, 
552, 3359845289, -136.33082580566406, 18.84086799621582, 21.101472854614258, -3.3693132400512695, -6.956518650054932, -7.469516277313232, 1.2419580221176147, 15.133025169372559, -16.92947006225586, 
553, 3359853622, -136.33741760253906, 18.658823013305664, 21.112018585205078, -3.3147974014282227, -7.070760726928711, -7.5488433837890625, 0.4490177035331726, 13.95010757446289, -16.581497192382812, 
554, 3359861955, -136.331298828125, 18.485671997070312, 21.1264705657959, -3.2732081413269043, -6.978712558746338, -7.538893699645996, 1.8912405967712402, 12.810824394226074, -16.143095016479492, 
555, 3359870288, -136.3217010498047, 18.32461166381836, 21.142576217651367, -3.1690070629119873, -6.729002952575684, -7.414816856384277, 2.1916568279266357, 11.688342094421387, -15.305163383483887, 
556, 3359878621, -136.3116912841797, 18.181720733642578, 21.1641788482666, -3.178039073944092, -6.62306547164917, -7.32127046585083, 2.0981650352478027, 9.616456985473633, -14.229747772216797, 
557, 3359886954, -136.30538940429688, 18.050399780273438, 21.192277908325195, -3.277747869491577, -6.774563789367676, -7.242858409881592, 1.3575674295425415, 8.15538215637207, -13.834020614624023, 
558, 3359895287, -136.29200744628906, 17.930675506591797, 21.21986198425293, -3.3379762172698975, -6.435976028442383, -7.161533355712891, 2.295945405960083, 7.12753438949585, -12.807377815246582, 
559, 3359903620, -136.296875, 17.820188522338867, 21.23997688293457, -3.488088607788086, -6.2854323387146, -7.077147483825684, 0.3226753771305084, 6.972131252288818, -11.453508377075195, 
560, 3359911953, -136.31649780273438, 17.719690322875977, 21.25693130493164, -3.5965373516082764, -6.526969909667969, -7.035828113555908, -1.2643955945968628, 6.297298431396484, -10.340107917785645, 
561, 3359920286, -136.34312438964844, 17.625335693359375, 21.26763153076172, -3.665555000305176, -6.845286846160889, -7.025760173797607, -1.9368205070495605, 6.318583965301514, -9.334569931030273, 
562, 3359928619, -136.36529541015625, 17.542016983032227, 21.27583885192871, -3.5298662185668945, -6.679001331329346, -6.9985527992248535, -1.2448517084121704, 5.506100177764893, -8.190613746643066, 
563, 3359936952, -136.3972930908203, 17.469463348388672, 21.287715911865234, -3.3780128955841064, -7.126986026763916, -7.085129737854004, -2.620849132537842, 4.341114044189453, -7.6206207275390625, 
564, 3359945285, -136.4067840576172, 17.40108871459961, 21.311420440673828, -3.2952325344085693, -7.624312400817871, -7.254528522491455, -0.27811935544013977, 2.9912943840026855, -8.237641334533691, 
565, 3359953618, -136.3848876953125, 17.33451271057129, 21.344024658203125, -3.123257637023926, -7.435853004455566, -7.356128692626953, 3.109504461288452, 2.1848816871643066, -8.844263076782227, 
566, 3359961951, -136.35836791992188, 17.266746520996094, 21.37609100341797, -2.9909348487854004, -7.35305643081665, -7.436548709869385, 3.747708559036255, 2.271867513656616, -8.88573169708252, 
567, 3359970284, -136.31222534179688, 17.196624755859375, 21.401607513427734, -2.8644750118255615, -7.211874961853027, -7.516245365142822, 6.279111862182617, 3.0429842472076416, -8.555949211120605, 
568, 3359978617, -136.2645263671875, 17.121816635131836, 21.419849395751953, -2.841918706893921, -6.808771133422852, -7.429158687591553, 6.786787033081055, 3.9674789905548096, -8.323858261108398, 
569, 3359986950, -136.228759765625, 17.044368743896484, 21.42713165283203, -2.9669644832611084, -6.640793800354004, -7.283565521240234, 5.682992935180664, 5.110079288482666, -7.662346363067627, 
570, 3359995283, -136.20761108398438, 16.9635066986084, 21.427444458007812, -3.1776950359344482, -6.717864513397217, -7.094235897064209, 4.238720893859863, 5.902416706085205, -7.348187446594238, 
571, 3360003616, -136.19158935546875, 16.89183807373047, 21.43410873413086, -3.2546355724334717, -6.711162090301514, -6.983884334564209, 3.3377020359039307, 4.652941703796387, -7.135870933532715, 
572, 3360011949, -136.18600463867188, 16.816753387451172, 21.4439640045166, -3.4021034240722656, -6.94359827041626, -6.941807270050049, 2.0351665019989014, 4.64110803604126, -7.665291786193848, 
573, 3360020282, -136.1702423095703, 16.740703582763672, 21.459720611572266, -3.2619388103485107, -6.661609649658203, -7.010897159576416, 2.9933693408966064, 4.306354522705078, -8.25654411315918, 
574, 3360028615, -136.1697998046875, 16.66115379333496, 21.473390579223633, -3.045172691345215, -6.754985809326172, -7.155734062194824, 1.291175127029419, 4.722560405731201, -8.354825019836426, 
575, 3360036948, -136.17501831054688, 16.569984436035156, 21.48046112060547, -2.8920726776123047, -6.868727684020996, -7.365461349487305, 0.7807348370552063, 6.304778099060059, -8.793752670288086, 
576, 3360045281, -136.1936798095703, 16.46981430053711, 21.47578239440918, -2.7784688472747803, -6.6897735595703125, -7.415503978729248, -0.368678480386734, 7.973224639892578, -8.544639587402344, 
577, 3360053614, -136.2319793701172, 16.36241340637207, 21.458093643188477, -2.7976717948913574, -6.700541019439697, -7.453054904937744, -2.348684787750244, 9.6885347366333, -8.078999519348145, 
578, 3360061947, -136.2803497314453, 16.244457244873047, 21.43565559387207, -2.901766300201416, -6.97908353805542, -7.436249256134033, -3.3423378467559814, 10.936895370483398, -8.535265922546387, 
579, 3360070280, -136.32257080078125, 16.117860794067383, 21.4122314453125, -2.9882233142852783, -7.100855827331543, -7.368841171264648, -2.636115074157715, 11.822700500488281, -9.175021171569824, 
580, 3360078613, -136.35813903808594, 15.982921600341797, 21.390644073486328, -3.0915279388427734, -7.011618137359619, -7.278991222381592, -1.8421504497528076, 12.360011100769043, -9.991012573242188, 
581, 3360086946, -136.38674926757812, 15.84549617767334, 21.37316131591797, -3.1899681091308594, -6.967464923858643, -7.214686393737793, -1.2062641382217407, 12.304619789123535, -10.549135208129883, 
582, 3360095279, -136.4003143310547, 15.706498146057129, 21.36188316345215, -3.303736686706543, -6.9549241065979, -7.1833953857421875, 0.44965797662734985, 11.903883934020996, -11.170151710510254, 
583, 3360103612, -136.40792846679688, 15.568700790405273, 21.358200073242188, -3.355396032333374, -6.995133399963379, -7.056616306304932, 0.8535816669464111, 11.244023323059082, -11.727581024169922, 
584, 3360111945, -136.41224670410156, 15.434489250183105, 21.357145309448242, -3.3551182746887207, -7.015947341918945, -7.083107948303223, 1.224655270576477, 10.677590370178223, -11.629454612731934, 
585, 3360120278, -136.4100341796875, 15.305866241455078, 21.361812591552734, -3.2842788696289062, -6.967308044433594, -7.020337104797363, 1.7650388479232788, 9.782706260681152, -11.664135932922363, 
586, 3360128611, -136.40052795410156, 15.185858726501465, 21.368059158325195, -3.2921600341796875, -7.053563117980957, -6.969205856323242, 2.6490626335144043, 8.861898422241211, -11.071625709533691, 
587, 3360136944, -136.38449096679688, 15.07447338104248, 21.388635635375977, -3.1463143825531006, -7.010958194732666, -6.915496826171875, 2.930896759033203, 7.010143280029297, -11.574358940124512, 
588, 3360145277, -136.37506103515625, 14.970589637756348, 21.40277671813965, -3.167241096496582, -6.856041431427002, -7.0352654457092285, 2.3968141078948975, 6.828205585479736, -10.40768051147461, 
589, 3360153610, -136.3779754638672, 14.868563652038574, 21.413970947265625, -3.184631824493408, -6.8596625328063965, -7.13841438293457, 0.9511204957962036, 6.942417621612549, -10.017725944519043, 
590, 3360161943, -136.39779663085938, 14.770960807800293, 21.412691116333008, -3.0902202129364014, -6.421609878540039, -7.011844635009766, -0.6350793838500977, 7.521274566650391, -8.59104061126709, 
591, 3360170276, -136.440185546875, 14.679473876953125, 21.402334213256836, -3.174269676208496, -6.66296911239624, -6.9892473220825195, -3.120096206665039, 7.755977630615234, -7.32902717590332, 
592, 3360178609, -136.46731567382812, 14.59074592590332, 21.39242935180664, -3.271055221557617, -6.954034328460693, -6.948616981506348, -1.25178062915802, 7.453154563903809, -7.122538089752197, 
593, 3360186942, -136.46827697753906, 14.506387710571289, 21.391258239746094, -3.3322315216064453, -6.938920497894287, -6.832304954528809, 1.571267008781433, 6.408182144165039, -7.504151344299316, 
594, 3360195275, -136.45921325683594, 14.428788185119629, 21.397180557250977, -3.3194336891174316, -6.876743316650391, -6.8102946281433105, 2.6112563610076904, 5.222499370574951, -7.5388078689575195, 
595, 3360203608, -136.4411163330078, 14.359296798706055, 21.406444549560547, -3.2578837871551514, -6.880085468292236, -6.8908257484436035, 3.5447158813476562, 4.2754645347595215, -7.157078742980957, 
596, 3360211941, -136.4151153564453, 14.294036865234375, 21.415992736816406, -3.146390914916992, -6.992373466491699, -6.898654937744141, 4.5360894203186035, 3.8592071533203125, -6.831342697143555, 
597, 3360220274, -136.371337890625, 14.238698959350586, 21.429964065551758, -3.0649147033691406, -6.9756035804748535, -6.828606128692627, 6.489047527313232, 2.662203311920166, -6.386961460113525, 
598, 3360228607, -136.3223876953125, 14.183419227600098, 21.443279266357422, -3.075968027114868, -7.095387935638428, -6.871049404144287, 7.181757926940918, 2.683027505874634, -6.330789089202881, 
599, 3360236940, -136.2632598876953, 14.131478309631348, 21.451414108276367, -3.0390310287475586, -6.943577766418457, -6.988168716430664, 8.50552749633789, 2.826671838760376, -5.621070384979248, 
600, 3360245273, -136.20962524414062, 14.084860801696777, 21.454479217529297, -2.8429577350616455, -6.504983425140381, -6.930152416229248, 8.039937019348145, 2.7516729831695557, -4.761455535888672, 
601, 3360253606, -136.1729736328125, 14.030400276184082, 21.4481201171875, -2.8915598392486572, -6.907388687133789, -6.999728202819824, 6.233556747436523, 4.20214319229126, -4.619936943054199, 
602, 3360261939, -136.12518310546875, 13.968827247619629, 21.436906814575195, -2.8276216983795166, -6.808061599731445, -7.065408706665039, 7.75619649887085, 5.19354248046875, -4.811122417449951, 
603, 3360270272, -136.09939575195312, 13.903034210205078, 21.414976119995117, -2.728426456451416, -6.540584564208984, -7.034283638000488, 5.3780293464660645, 6.435206413269043, -4.262772560119629, 
