PacketCounter,SampleTimeFine,Euler_X,Euler_Y,Euler_Z,Acc_X,Acc_Y,Acc_Z,Gyr_X,Gyr_Y,Gyr_Z,
0, 3020700522, -120.55827331542969, 7.197183132171631, 19.646352767944336, 0, 0, 0, 0, 0, 0, 
1, 3020708855, -120.89505004882812, 6.875332832336426, 19.587827682495117, -0.813811182975769, -7.941823959350586, -4.185765743255615, -37.754024505615234, 24.559059143066406, -30.065580368041992, 
2, 3020717188, -121.23299407958984, 6.524765968322754, 19.53519058227539, -0.5363302230834961, -7.273880481719971, -4.392214775085449, -38.171875, 26.04448699951172, -33.40438461303711, 
3, 3020725521, -121.62712097167969, 6.149437427520752, 19.47146224975586, -0.29312682151794434, -6.903363227844238, -4.473879337310791, -44.664981842041016, 28.805397033691406, -34.89537048339844, 
4, 3020733854, -122.07090759277344, 5.752262592315674, 19.396034240722656, -0.14292430877685547, -7.129341125488281, -4.728361129760742, -50.67253494262695, 31.76178741455078, -36.341461181640625, 
5, 3020742187, -122.51824188232422, 5.331775188446045, 19.320960998535156, 0.15560060739517212, -7.314265251159668, -4.793102264404297, -51.022186279296875, 33.369327545166016, -38.285865783691406, 
6, 3020750520, -122.95674133300781, 4.90043306350708, 19.253896713256836, 0.35179534554481506, -7.373382091522217, -4.949827671051025, -50.25971603393555, 33.69794845581055, -39.81315994262695, 
7, 3020758853, -123.38904571533203, 4.45583438873291, 19.196338653564453, 0.3578799366950989, -7.05014705657959, -5.261591911315918, -49.526756286621094, 33.7802734375, -41.30844497680664, 
8, 3020767186, -123.83958435058594, 4.008797645568848, 19.133636474609375, 0.4334373474121094, -6.92319393157959, -5.401665210723877, -51.864925384521484, 34.910743713378906, -41.12787628173828, 
9, 3020775519, -124.3204574584961, 3.55710768699646, 19.070486068725586, 0.5293052792549133, -7.314481735229492, -5.4748005867004395, -55.414268493652344, 35.45405578613281, -41.06630325317383, 
10, 3020783852, -124.80848693847656, 3.111112594604492, 19.02188491821289, 0.5586768388748169, -7.976917743682861, -5.407327175140381, -56.582496643066406, 34.12123489379883, -41.376365661621094, 
11, 3020792185, -125.26734924316406, 2.669733762741089, 18.997501373291016, 0.4890286922454834, -8.645774841308594, -5.547823905944824, -53.118473052978516, 31.61232566833496, -42.09019088745117, 
12, 3020800518, -125.65155029296875, 2.2408249378204346, 19.005435943603516, 0.4355209171772003, -8.941181182861328, -5.7729172706604, -44.50007629394531, 28.04848289489746, -43.08152389526367, 
13, 3020808851, -125.96336364746094, 1.8201041221618652, 19.04244041442871, 0.43696001172065735, -8.74161148071289, -5.969692230224609, -35.78282165527344, 24.742706298828125, -43.933555603027344, 
14, 3020817184, -126.25103759765625, 1.4042303562164307, 19.09511947631836, 0.40483635663986206, -8.36245346069336, -6.132278919219971, -33.05499267578125, 23.266212463378906, -44.65040969848633, 
15, 3020825517, -126.53343963623047, 1.000484824180603, 19.13391876220703, 0.2595120668411255, -8.609643936157227, -6.321636199951172, -32.1973991394043, 23.797840118408203, -42.14915084838867, 
16, 3020833850, -126.79072570800781, 0.614964485168457, 19.17391014099121, 0.1504087746143341, -8.965778350830078, -6.2361345291137695, -29.29857063293457, 22.73750877380371, -40.58305740356445, 
17, 3020842183, -126.99169921875, 0.2489236295223236, 19.218795776367188, -0.02099686674773693, -9.597447395324707, -6.299623966217041, -22.369367599487305, 20.855934143066406, -38.74678421020508, 
18, 3020850516, -127.08618927001953, -0.09619814902544022, 19.281078338623047, -0.11479417234659195, -9.757598876953125, -6.41706657409668, -9.703303337097168, 17.943557739257812, -38.1678352355957, 
19, 3020858849, -127.12052917480469, -0.4205436706542969, 19.365583419799805, -0.13457433879375458, -9.40522575378418, -6.267923355102539, -2.2941677570343018, 14.186782836914062, -37.542755126953125, 
20, 3020867182, -127.12781524658203, -0.7204425930976868, 19.4694881439209, -0.15834276378154755, -9.39539623260498, -6.388774871826172, 0.8978185653686523, 10.742149353027344, -36.82647705078125, 
21, 3020875515, -127.09263610839844, -1.007580041885376, 19.582862854003906, -0.17193305492401123, -9.547574043273926, -6.734951496124268, 6.201201438903809, 8.741419792175293, -36.07193374633789, 
22, 3020883848, -127.0174331665039, -1.2753195762634277, 19.70132827758789, -0.0954144299030304, -9.26717472076416, -6.496771812438965, 10.953173637390137, 6.980784893035889, -34.809879302978516, 
23, 3020892181, -126.90214538574219, -1.52811861038208, 19.82534408569336, 0.05793061479926109, -8.711797714233398, -6.992478370666504, 15.968088150024414, 5.1556396484375, -33.57486343383789, 
24, 3020900514, -126.79991149902344, -1.7598806619644165, 19.914932250976562, -0.07035227864980698, -9.02591323852539, -6.781970977783203, 14.221931457519531, 7.042922019958496, -29.30638885498047, 
25, 3020908847, -126.65486145019531, -1.9867838621139526, 19.985164642333984, 0.13997270166873932, -8.483419418334961, -6.804076194763184, 19.451135635375977, 8.340847969055176, -27.251102447509766, 
26, 3020917180, -126.52881622314453, -2.1904282569885254, 20.026702880859375, 0.08820761740207672, -8.643111228942871, -6.93196439743042, 16.956100463867188, 9.531706809997559, -23.196950912475586, 
27, 3020925513, -126.39898681640625, -2.378784656524658, 20.047773361206055, 0.0010318742133677006, -8.920560836791992, -6.826081275939941, 17.44914436340332, 10.21496295928955, -20.074745178222656, 
28, 3020933846, -126.26851654052734, -2.5465354919433594, 20.064151763916016, -0.019417429342865944, -8.99756145477295, -6.731794834136963, 17.388015747070312, 9.307539939880371, -17.985301971435547, 
29, 3020942179, -126.13627624511719, -2.6914453506469727, 20.068300247192383, 0.009146921336650848, -9.081070899963379, -6.688793182373047, 17.665109634399414, 8.689620971679688, -14.724581718444824, 
30, 3020950512, -125.99739074707031, -2.82047176361084, 20.068735122680664, -0.08659388870000839, -8.94781494140625, -6.632304668426514, 18.314428329467773, 8.035354614257812, -13.151838302612305, 
31, 3020958845, -125.853271484375, -2.9282546043395996, 20.045181274414062, 0.06947671622037888, -9.133893013000488, -6.761745452880859, 18.92706871032715, 8.701504707336426, -9.219411849975586, 
32, 3020967178, -125.697021484375, -3.017864942550659, 20.005949020385742, 0.16694989800453186, -9.196586608886719, -6.86635684967041, 20.149677276611328, 9.063576698303223, -6.580236911773682, 
33, 3020975511, -125.54083251953125, -3.0870280265808105, 19.944480895996094, 0.253624826669693, -9.084566116333008, -6.817905426025391, 20.125919342041016, 9.652741432189941, -2.8661575317382812, 
34, 3020983844, -125.37887573242188, -3.1253111362457275, 19.847740173339844, 0.4684638977050781, -8.923749923706055, -7.080526828765869, 20.45290756225586, 11.070053100585938, 2.378525733947754, 
35, 3020992177, -125.23568725585938, -3.123244524002075, 19.709095001220703, 0.4809587597846985, -8.613039016723633, -7.251196384429932, 18.050655364990234, 12.248976707458496, 9.39147663116455, 
36, 3021000510, -125.1475601196289, -3.0959293842315674, 19.52825927734375, 0.5766684412956238, -8.149057388305664, -7.238743782043457, 11.043313026428223, 14.782940864562988, 14.563042640686035, 
37, 3021008843, -125.1673812866211, -3.055593729019165, 19.331941604614258, 0.5476717948913574, -8.252798080444336, -6.734381198883057, -1.8636671304702759, 15.283445358276367, 17.088993072509766, 
38, 3021017176, -125.27481079101562, -3.011420726776123, 19.146432876586914, 0.37781310081481934, -8.42447280883789, -6.518196105957031, -12.42216682434082, 14.065103530883789, 16.545127868652344, 
39, 3021025509, -125.44818878173828, -2.978841781616211, 18.98727798461914, 0.03398852050304413, -8.854537963867188, -6.169583320617676, -20.015451431274414, 12.13039779663086, 13.813253402709961, 
40, 3021033842, -125.65535736083984, -2.9530441761016846, 18.87202262878418, -0.2012559324502945, -8.981953620910645, -6.066978454589844, -23.93299674987793, 8.400168418884277, 9.94486141204834, 
41, 3021042175, -125.87186431884766, -2.928534746170044, 18.782087326049805, -0.3488127887248993, -8.934430122375488, -6.166839599609375, -24.746105194091797, 5.866905689239502, 8.266063690185547, 
42, 3021050508, -126.0892105102539, -2.9022655487060547, 18.718286514282227, -0.4611360728740692, -9.028789520263672, -6.1742048263549805, -24.826854705810547, 3.2981932163238525, 6.438116073608398, 
43, 3021058841, -126.30056762695312, -2.8685147762298584, 18.674556732177734, -0.584844708442688, -8.961247444152832, -6.097468376159668, -23.84341049194336, 0.6818385124206543, 5.9345526695251465, 
44, 3021067174, -126.49838256835938, -2.8289620876312256, 18.648113250732422, -0.6607203483581543, -8.884596824645996, -6.093843460083008, -22.24930191040039, -1.302817463874817, 5.095736503601074, 
45, 3021075507, -126.69422149658203, -2.785374402999878, 18.636674880981445, -0.6401900053024292, -8.541182518005371, -6.2895402908325195, -21.79139518737793, -3.167994976043701, 4.574665069580078, 
46, 3021083840, -126.91513061523438, -2.722081422805786, 18.62550926208496, -0.5786983966827393, -8.562992095947266, -6.1247711181640625, -24.92906379699707, -4.515432834625244, 6.280036926269531, 
47, 3021092173, -127.14105987548828, -2.653625965118408, 18.632022857666016, -0.6846165657043457, -8.82914924621582, -5.897928237915039, -25.29901695251465, -6.712265968322754, 5.634149074554443, 
48, 3021100506, -127.3591079711914, -2.5739364624023438, 18.667997360229492, -0.7650889754295349, -9.001482963562012, -5.743332386016846, -24.324905395507812, -10.25901985168457, 4.3973388671875, 
49, 3021108839, -127.54051971435547, -2.492861032485962, 18.73185920715332, -0.7090457081794739, -9.020027160644531, -5.828528881072998, -19.66077995300293, -13.129555702209473, 2.6018311977386475, 
50, 3021117172, -127.6751708984375, -2.403812885284424, 18.820899963378906, -0.5667358040809631, -8.742644309997559, -5.833580017089844, -14.057046890258789, -16.015357971191406, 1.348500370979309, 
51, 3021125505, -127.7787857055664, -2.301081895828247, 18.925081253051758, -0.4536702334880829, -8.527921676635742, -5.919223308563232, -10.160120964050293, -18.549835205078125, 1.6270040273666382, 
52, 3021133838, -127.85742950439453, -2.186497211456299, 19.035642623901367, -0.2811809480190277, -8.247442245483398, -6.1652069091796875, -7.272550106048584, -19.941307067871094, 2.1289665699005127, 
53, 3021142171, -127.91936492919922, -2.057934522628784, 19.15920639038086, -0.18831130862236023, -8.119075775146484, -6.205146312713623, -5.1316609382629395, -22.291824340820312, 2.586104393005371, 
54, 3021150504, -127.97637176513672, -1.9240037202835083, 19.292579650878906, -0.07917845249176025, -7.961363792419434, -6.163343906402588, -4.638561248779297, -23.53360366821289, 2.2347021102905273, 
55, 3021158837, -128.03131103515625, -1.7891616821289062, 19.427202224731445, 0.057986095547676086, -7.698328495025635, -6.328389644622803, -4.319201946258545, -23.803218841552734, 2.3103408813476562, 
56, 3021167170, -128.0896453857422, -1.6496840715408325, 19.559017181396484, 0.13838203251361847, -7.588656902313232, -6.437646865844727, -4.877810955047607, -23.804689407348633, 2.8282995223999023, 
57, 3021175503, -128.1702423095703, -1.5161579847335815, 19.681964874267578, 0.20904140174388885, -7.621335983276367, -6.52938985824585, -7.51563024520874, -22.608186721801758, 2.996213912963867, 
58, 3021183836, -128.2536163330078, -1.3922559022903442, 19.79718780517578, 0.327340692281723, -7.156376838684082, -6.664455890655518, -8.008370399475098, -21.0955867767334, 2.5290608406066895, 
59, 3021192169, -128.37911987304688, -1.2835580110549927, 19.888933181762695, 0.35654160380363464, -6.8992838859558105, -6.6614484786987305, -13.043797492980957, -17.83481216430664, 2.9053852558135986, 
60, 3021200502, -128.54405212402344, -1.185319185256958, 19.956523895263672, 0.31149524450302124, -6.7505059242248535, -6.648556709289551, -17.973464965820312, -14.72055721282959, 3.582472324371338, 
61, 3021208835, -128.757568359375, -1.1005038022994995, 19.99808120727539, 0.3476302921772003, -6.873242378234863, -6.6814470291137695, -23.75537109375, -11.363377571105957, 4.330331802368164, 
62, 3021217168, -129.0147247314453, -1.026686191558838, 20.021726608276367, 0.3599744737148285, -6.95072603225708, -6.759120464324951, -29.16249656677246, -8.807563781738281, 4.50986385345459, 
63, 3021225501, -129.31581115722656, -0.9603272676467896, 20.021169662475586, 0.46213680505752563, -6.874209880828857, -6.743576526641846, -34.3599739074707, -6.092685699462891, 5.709380626678467, 
64, 3021233834, -129.62059020996094, -0.9027190208435059, 19.99562644958496, 0.5630052089691162, -7.390597343444824, -6.735957145690918, -34.97814178466797, -3.0651564598083496, 6.681570529937744, 
65, 3021242167, -129.87562561035156, -0.8649243712425232, 19.954099655151367, 0.6155779957771301, -7.70102071762085, -6.7474589347839355, -28.896631240844727, -0.18494771420955658, 6.167835712432861, 
66, 3021250500, -130.0809326171875, -0.8429837226867676, 19.908464431762695, 0.5446635484695435, -7.54299783706665, -6.681806564331055, -23.07324981689453, 1.4672865867614746, 4.932023525238037, 
67, 3021258833, -130.26181030273438, -0.831832766532898, 19.854141235351562, 0.5232228636741638, -7.453927516937256, -6.567573547363281, -20.012126922607422, 2.9969818592071533, 4.7217936515808105, 
68, 3021267166, -130.43443298339844, -0.8261203765869141, 19.79995346069336, 0.48193249106407166, -7.602840423583984, -6.666997909545898, -19.163808822631836, 3.4736883640289307, 4.126723289489746, 
69, 3021275499, -130.57896423339844, -0.8332992792129517, 19.7432861328125, 0.5309847593307495, -7.528558731079102, -6.670118808746338, -15.654683113098145, 4.605607509613037, 3.2613720893859863, 
70, 3021283832, -130.71624755859375, -0.8528130650520325, 19.683246612548828, 0.4578576982021332, -7.340997219085693, -6.684768199920654, -14.936224937438965, 5.954887866973877, 2.3124406337738037, 
71, 3021292165, -130.8483123779297, -0.8983774781227112, 19.633262634277344, 0.473606139421463, -7.139965057373047, -6.537549018859863, -14.14879322052002, 6.9864501953125, -0.722577691078186, 
72, 3021300498, -130.985595703125, -0.959603488445282, 19.596837997436523, 0.4248909652233124, -7.132587909698486, -6.519890308380127, -14.902749061584473, 7.0775604248046875, -3.2940165996551514, 
73, 3021308831, -131.1220703125, -1.0254334211349487, 19.57182502746582, 0.3411606252193451, -7.36767578125, -6.479321002960205, -14.631122589111328, 6.324642658233643, -4.484118938446045, 
74, 3021317164, -131.2466278076172, -1.0977152585983276, 19.56155014038086, 0.2776300311088562, -7.13913631439209, -6.463649749755859, -13.324132919311523, 5.60329532623291, -6.320019721984863, 
75, 3021325497, -131.4072265625, -1.1762185096740723, 19.5645751953125, 0.3174978792667389, -7.0272650718688965, -6.34783935546875, -17.4731388092041, 4.818563461303711, -7.81096076965332, 
76, 3021333830, -131.5859832763672, -1.2558115720748901, 19.58612060546875, 0.288186639547348, -7.226462364196777, -6.358150959014893, -19.750171661376953, 3.355581521987915, -9.472506523132324, 
77, 3021342163, -131.77151489257812, -1.336061716079712, 19.62029457092285, 0.24013549089431763, -7.386935234069824, -6.341291904449463, -20.381437301635742, 2.2120847702026367, -10.415342330932617, 
78, 3021350496, -131.93893432617188, -1.4139071702957153, 19.6717586517334, 0.26632750034332275, -7.46673583984375, -6.370564937591553, -18.2952823638916, 0.5972601175308228, -11.681838035583496, 
79, 3021358829, -132.0937042236328, -1.4832866191864014, 19.73006248474121, 0.31501948833465576, -7.438668727874756, -6.4651336669921875, -16.605792999267578, -0.753852903842926, -11.36419677734375, 
80, 3021367162, -132.22560119628906, -1.5415633916854858, 19.79024887084961, 0.4377385973930359, -7.483774185180664, -6.611471176147461, -13.991776466369629, -1.6942025423049927, -10.63270092010498, 
81, 3021375495, -132.33291625976562, -1.5946465730667114, 19.850852966308594, 0.5212755799293518, -7.299376010894775, -6.67445182800293, -10.891380310058594, -2.224289655685425, -10.102922439575195, 
82, 3021383828, -132.4399871826172, -1.6393969058990479, 19.909029006958008, 0.46576058864593506, -7.083919048309326, -6.617513656616211, -11.006385803222656, -2.5707216262817383, -9.27668285369873, 
83, 3021392161, -132.56707763671875, -1.678217887878418, 19.967710494995117, 0.5885726809501648, -7.4913225173950195, -6.679897785186768, -13.258890151977539, -3.1726691722869873, -8.686723709106445, 
84, 3021400494, -132.66818237304688, -1.717765212059021, 20.029905319213867, 0.5387226343154907, -7.729674339294434, -6.775936126708984, -10.267390251159668, -3.3135604858398438, -9.14858627319336, 
85, 3021408827, -132.7582244873047, -1.7591123580932617, 20.0911808013916, 0.5356561541557312, -7.469898700714111, -6.80157995223999, -8.795674324035645, -3.165997266769409, -9.12814712524414, 
86, 3021417160, -132.84671020507812, -1.7994356155395508, 20.141820907592773, 0.5988848805427551, -7.5886616706848145, -6.928075790405273, -8.785067558288574, -2.205718517303467, -8.281620979309082, 
87, 3021425493, -132.91407775878906, -1.847672939300537, 20.189815521240234, 0.6910954117774963, -7.6698784828186035, -7.0201096534729, -6.116577625274658, -1.412215232849121, -8.654743194580078, 
88, 3021433826, -132.9608154296875, -1.9007161855697632, 20.227333068847656, 0.6672435402870178, -7.519181251525879, -7.028659343719482, -3.814241886138916, 0.004264770541340113, -8.330339431762695, 
89, 3021442159, -132.99813842773438, -1.9605411291122437, 20.25310707092285, 0.6620760560035706, -7.44619083404541, -7.136693477630615, -2.5937740802764893, 1.4976000785827637, -7.85427188873291, 
90, 3021450492, -133.02735900878906, -2.024707078933716, 20.262821197509766, 0.7245767116546631, -7.3629069328308105, -7.119217395782471, -1.8195459842681885, 3.3647890090942383, -7.029327869415283, 
91, 3021458825, -133.05686950683594, -2.094693183898926, 20.257610321044922, 0.7062067985534668, -7.349173545837402, -7.106541156768799, -1.7814571857452393, 5.052971363067627, -6.204830646514893, 
92, 3021467158, -133.0823211669922, -2.1663663387298584, 20.240476608276367, 0.6548101305961609, -7.47097635269165, -7.0624589920043945, -1.4857279062271118, 6.337025165557861, -5.484878063201904, 
93, 3021475491, -133.09217834472656, -2.238567352294922, 20.217500686645508, 0.6601527333259583, -7.622116565704346, -7.050332546234131, 0.4935222566127777, 6.7921905517578125, -4.936579704284668, 
94, 3021483824, -133.08465576171875, -2.31135892868042, 20.19150733947754, 0.6197577118873596, -7.4325361251831055, -6.974920749664307, 2.426487922668457, 7.207154273986816, -4.85631799697876, 
95, 3021492157, -133.07977294921875, -2.3863909244537354, 20.160755157470703, 0.6195297241210938, -7.412370681762695, -6.9652299880981445, 2.2162463665008545, 7.703917980194092, -4.54533576965332, 
96, 3021500490, -133.06741333007812, -2.461179256439209, 20.119970321655273, 0.5544506311416626, -7.2461981773376465, -6.972718715667725, 2.9245052337646484, 8.664681434631348, -3.822963237762451, 
97, 3021508823, -133.07049560546875, -2.5399386882781982, 20.073684692382812, 0.4914295971393585, -7.04534912109375, -6.823431968688965, 1.1683677434921265, 9.368022918701172, -3.602808713912964, 
98, 3021517156, -133.08995056152344, -2.615963935852051, 20.029062271118164, 0.4156121611595154, -7.233878135681152, -6.738585472106934, -0.9285929203033447, 9.102364540100098, -3.6140406131744385, 
99, 3021525489, -133.10360717773438, -2.692436456680298, 19.987018585205078, 0.310358464717865, -7.447922229766846, -6.7574896812438965, -0.09118669480085373, 8.809697151184082, -3.7441611289978027, 
100, 3021533822, -133.10520935058594, -2.764847755432129, 19.95465660095215, 0.297625869512558, -7.361130237579346, -6.681152820587158, 1.2679429054260254, 7.734179496765137, -4.297889232635498, 
101, 3021542155, -133.10826110839844, -2.831855535507202, 19.939794540405273, 0.29228562116622925, -7.28457498550415, -6.701287746429443, 1.3286746740341187, 5.65842866897583, -5.141725540161133, 
102, 3021550488, -133.11021423339844, -2.889598846435547, 19.930747985839844, 0.36735838651657104, -7.3370361328125, -6.816737174987793, 1.358412504196167, 4.490111351013184, -4.923824310302734, 
103, 3021558821, -133.11233520507812, -2.9474713802337646, 19.927499771118164, 0.3871328830718994, -7.290363311767578, -6.8165388107299805, 1.5045931339263916, 3.894888162612915, -5.292798042297363, 
104, 3021567154, -133.1195831298828, -3.0057220458984375, 19.929773330688477, 0.44305700063705444, -7.22706413269043, -6.871676921844482, 0.7896227836608887, 3.542384624481201, -5.894654750823975, 
105, 3021575487, -133.13360595703125, -3.06679105758667, 19.93308448791504, 0.4346003234386444, -7.294205188751221, -6.930910587310791, 0.11271543800830841, 3.5861337184906006, -6.10955810546875, 
106, 3021583820, -133.14590454101562, -3.1236729621887207, 19.93369483947754, 0.4839077591896057, -7.241191864013672, -6.936178207397461, 0.17461222410202026, 3.576669216156006, -5.636783599853516, 
107, 3021592153, -133.1714324951172, -3.1779561042785645, 19.934377670288086, 0.5496538281440735, -7.278576374053955, -6.852643966674805, -1.282043695449829, 3.2655460834503174, -5.30063533782959, 
108, 3021600486, -133.2066650390625, -3.2218523025512695, 19.937925338745117, 0.5379687547683716, -7.357399940490723, -6.84705114364624, -2.5587596893310547, 2.257446765899658, -4.737353324890137, 
109, 3021608819, -133.24868774414062, -3.2632029056549072, 19.944122314453125, 0.5665555000305176, -7.477761745452881, -6.8911519050598145, -3.2242684364318848, 1.7268990278244019, -4.617350101470947, 
110, 3021617152, -133.2736053466797, -3.301001787185669, 19.957271575927734, 0.5282977819442749, -7.599576473236084, -6.9982404708862305, -1.2539451122283936, 0.9241488575935364, -4.989192008972168, 
111, 3021625485, -133.29513549804688, -3.3352105617523193, 19.97673988342285, 0.5582379698753357, -7.51733922958374, -6.9204487800598145, -0.6748582124710083, -0.0147281838580966, -5.083426475524902, 
112, 3021633818, -133.30999755859375, -3.3610177040100098, 20.004703521728516, 0.5592146515846252, -7.502054214477539, -6.989171504974365, 0.0605904683470726, -1.3514838218688965, -5.156068801879883, 
113, 3021642151, -133.31884765625, -3.3822531700134277, 20.03787612915039, 0.5803179144859314, -7.482189655303955, -7.053068161010742, 0.9432954788208008, -2.2729945182800293, -5.077113151550293, 
114, 3021650484, -133.31483459472656, -3.402273178100586, 20.068798065185547, 0.574410080909729, -7.43359375, -7.113314628601074, 2.347057819366455, -2.084243059158325, -4.894534587860107, 
115, 3021658817, -133.3106231689453, -3.429457426071167, 20.097736358642578, 0.575295090675354, -7.187592506408691, -7.1569342613220215, 2.4827237129211426, -1.4123177528381348, -5.248305320739746, 
116, 3021667150, -133.32351684570312, -3.4531643390655518, 20.109174728393555, 0.6362380385398865, -7.183781623840332, -7.153299808502197, 0.1829240769147873, -0.08124835789203644, -3.6143739223480225, 
117, 3021675483, -133.33885192871094, -3.480989456176758, 20.10938835144043, 0.6172857880592346, -7.486715316772461, -7.180635452270508, -0.06558524817228317, 1.1471590995788574, -2.944394588470459, 
118, 3021683816, -133.3504638671875, -3.512024164199829, 20.104265213012695, 0.5808513164520264, -7.3646931648254395, -7.1228485107421875, 0.21335376799106598, 1.9644964933395386, -2.89174485206604, 
119, 3021692149, -133.37098693847656, -3.5434186458587646, 20.09564971923828, 0.6119559407234192, -7.433891773223877, -7.175459861755371, -0.7513167858123779, 2.2114434242248535, -2.5290472507476807, 
120, 3021700482, -133.389404296875, -3.572317123413086, 20.087034225463867, 0.6326284408569336, -7.502168655395508, -7.112656593322754, -0.6293545365333557, 2.093707323074341, -2.41656231880188, 
121, 3021708815, -133.40567016601562, -3.5996322631835938, 20.076433181762695, 0.5572637915611267, -7.606795787811279, -7.111697196960449, -0.25687235593795776, 2.0499842166900635, -2.009193181991577, 
122, 3021717148, -133.40744018554688, -3.6257786750793457, 20.06572723388672, 0.5188069343566895, -7.586106300354004, -7.067459583282471, 1.3524701595306396, 2.051098108291626, -2.0038528442382812, 
123, 3021725481, -133.40711975097656, -3.6500749588012695, 20.055753707885742, 0.4837101399898529, -7.53294038772583, -6.962430000305176, 1.7357101440429688, 1.7461351156234741, -1.7979400157928467, 
124, 3021733814, -133.401123046875, -3.6685428619384766, 20.046802520751953, 0.4681622087955475, -7.584827899932861, -7.02599573135376, 2.296713352203369, 1.2642803192138672, -1.4780694246292114, 
125, 3021742147, -133.38400268554688, -3.688722610473633, 20.037220001220703, 0.49599894881248474, -7.364022254943848, -7.0535173416137695, 3.750718116760254, 1.375151515007019, -1.4753673076629639, 
126, 3021750480, -133.37742614746094, -3.7058746814727783, 20.019033432006836, 0.4504070281982422, -7.258019924163818, -7.034555435180664, 2.294382333755493, 1.9585286378860474, -0.6047521233558655, 
127, 3021758813, -133.3776092529297, -3.7249162197113037, 19.99191665649414, 0.40647852420806885, -7.511279582977295, -7.040839195251465, 1.536790132522583, 2.808716297149658, 0.065201036632061, 
128, 3021767146, -133.3635711669922, -3.745948553085327, 19.96107292175293, 0.3773893415927887, -7.4968342781066895, -7.058455467224121, 3.090972423553467, 3.3813092708587646, 0.09548986703157425, 
129, 3021775479, -133.33734130859375, -3.7677602767944336, 19.925737380981445, 0.375816285610199, -7.297975063323975, -6.954244613647461, 4.637982368469238, 3.7544453144073486, 0.4941626489162445, 
130, 3021783812, -133.3374481201172, -3.7826523780822754, 19.891469955444336, 0.4241388142108917, -7.47324275970459, -6.936988353729248, 1.3624083995819092, 3.17423152923584, 0.9116235375404358, 
131, 3021792145, -133.3153076171875, -3.7941954135894775, 19.86284828186035, 0.3661917448043823, -7.601569652557373, -6.959021091461182, 4.1986470222473145, 2.328167676925659, 0.8337562680244446, 
132, 3021800478, -133.2861785888672, -3.8024191856384277, 19.836200714111328, 0.3174794912338257, -7.3084259033203125, -6.926661491394043, 4.929113864898682, 1.9624730348587036, 0.8656459450721741, 
133, 3021808811, -133.28204345703125, -3.806001663208008, 19.812965393066406, 0.3202644884586334, -7.34722900390625, -6.830977916717529, 2.076789379119873, 1.2063665390014648, 1.0814714431762695, 
134, 3021817144, -133.28106689453125, -3.8034727573394775, 19.798625946044922, 0.3069707155227661, -7.643002986907959, -6.778860569000244, 1.6496846675872803, 0.004636176396161318, 0.7933240532875061, 
135, 3021825477, -133.27200317382812, -3.7941691875457764, 19.80108642578125, 0.2824225127696991, -7.699863433837891, -6.770350933074951, 2.8729183673858643, -2.090108871459961, 0.09474705904722214, 
136, 3021833810, -133.25343322753906, -3.7769482135772705, 19.81818962097168, 0.30141010880470276, -7.717198848724365, -6.850902557373047, 4.009857177734375, -3.9440667629241943, -0.5029739141464233, 
137, 3021842143, -133.2218780517578, -3.7551424503326416, 19.84333610534668, 0.43427789211273193, -7.634207248687744, -6.974675178527832, 5.746874809265137, -5.09398078918457, -0.6780857443809509, 
138, 3021850476, -133.18878173828125, -3.729834794998169, 19.87116241455078, 0.5744418501853943, -7.481106758117676, -7.069087505340576, 5.834347248077393, -5.543996810913086, -0.6699404120445251, 
139, 3021858809, -133.16000366210938, -3.6989142894744873, 19.89226531982422, 0.6235171556472778, -7.441867351531982, -7.16389274597168, 5.375288963317871, -5.487261772155762, 0.4528469443321228, 
140, 3021867142, -133.1259002685547, -3.663787364959717, 19.90460205078125, 0.6089757084846497, -7.496402263641357, -7.131310939788818, 5.832912921905518, -4.996800422668457, 1.4614331722259521, 
141, 3021875475, -133.0969696044922, -3.6231703758239746, 19.919240951538086, 0.5770528316497803, -7.506335258483887, -7.005178451538086, 5.341580867767334, -5.713460922241211, 1.8354524374008179, 
142, 3021883808, -133.07618713378906, -3.572969436645508, 19.940248489379883, 0.4678088426589966, -7.547343730926514, -6.952722072601318, 4.298234939575195, -6.991072177886963, 2.076533079147339, 
143, 3021892141, -133.068603515625, -3.5164995193481445, 19.96990203857422, 0.43837594985961914, -7.446376323699951, -6.853239059448242, 2.8869166374206543, -8.323577880859375, 1.9999980926513672, 
144, 3021900474, -133.07286071777344, -3.44918155670166, 20.015201568603516, 0.3821618854999542, -7.455164909362793, -6.803669452667236, 1.4625600576400757, -10.5191011428833, 1.5908361673355103, 
145, 3021908807, -133.073974609375, -3.3743808269500732, 20.08013916015625, 0.3808397352695465, -7.500699043273926, -6.794185161590576, 2.0880088806152344, -12.910602569580078, 0.7179544568061829, 
146, 3021917140, -133.05712890625, -3.287780284881592, 20.163114547729492, 0.34455016255378723, -7.508563995361328, -6.907773494720459, 4.246828079223633, -15.395642280578613, 0.2009308934211731, 
147, 3021925473, -133.01834106445312, -3.1953272819519043, 20.262741088867188, 0.44645339250564575, -7.20235538482666, -6.9237589836120605, 7.083682060241699, -17.39527130126953, -0.5681495070457458, 
148, 3021933806, -132.9839324951172, -3.087369441986084, 20.361082077026367, 0.4612163007259369, -7.2334885597229, -7.049802780151367, 6.421055793762207, -18.489885330200195, 0.834973156452179, 
149, 3021942139, -132.9474639892578, -2.96980881690979, 20.448856353759766, 0.4898879826068878, -7.097292423248291, -7.1354851722717285, 6.689440727233887, -18.409786224365234, 2.622206687927246, 
150, 3021950472, -132.92193603515625, -2.8444039821624756, 20.516298294067383, 0.5504351854324341, -7.040791034698486, -7.215561866760254, 5.118929386138916, -17.206430435180664, 4.907432556152344, 
151, 3021958805, -132.90463256835938, -2.7166178226470947, 20.562198638916016, 0.5494502782821655, -7.203169822692871, -7.237991809844971, 4.09999418258667, -15.564043998718262, 6.95298433303833, 
152, 3021967138, -132.87982177734375, -2.5928988456726074, 20.591371536254883, 0.5701296925544739, -7.256396293640137, -7.260757923126221, 4.787531852722168, -13.704258918762207, 7.891593933105469, 
153, 3021975471, -132.85354614257812, -2.4813990592956543, 20.602323532104492, 0.5997220873832703, -7.289737224578857, -7.349433422088623, 4.968112945556641, -11.160521507263184, 8.380237579345703, 
154, 3021983804, -132.8323974609375, -2.3848280906677246, 20.596603393554688, 0.6208657622337341, -7.227155685424805, -7.318514347076416, 4.155679702758789, -8.414214134216309, 8.357925415039062, 
155, 3021992137, -132.8251190185547, -2.299635171890259, 20.580978393554688, 0.5573227405548096, -7.392938137054443, -7.195443153381348, 2.5595922470092773, -6.671176910400391, 8.238908767700195, 
156, 3022000470, -132.81825256347656, -2.2219765186309814, 20.566387176513672, 0.47794392704963684, -7.7300238609313965, -7.060059547424316, 2.403268575668335, -6.088529586791992, 7.420098304748535, 
157, 3022008803, -132.79461669921875, -2.15517520904541, 20.562681198120117, 0.40004947781562805, -7.758238792419434, -6.952615737915039, 4.58534574508667, -6.218112945556641, 5.649335861206055, 
158, 3022017136, -132.7648162841797, -2.0971555709838867, 20.56770133972168, 0.2953157424926758, -7.536362171173096, -6.908181190490723, 5.243477821350098, -6.2073283195495605, 4.097548484802246, 
159, 3022025469, -132.73214721679688, -2.05311918258667, 20.57175064086914, 0.21104589104652405, -7.272581577301025, -6.879036903381348, 5.701690196990967, -5.041368007659912, 3.0167291164398193, 
160, 3022033802, -132.71058654785156, -2.0172152519226074, 20.57171058654785, 0.1522277593612671, -6.982243537902832, -6.702177047729492, 4.232124328613281, -3.956733226776123, 2.5641255378723145, 
161, 3022042135, -132.6999969482422, -1.9874365329742432, 20.566389083862305, 0.002431240864098072, -7.069713592529297, -6.625820159912109, 3.016575813293457, -3.04701828956604, 2.5263450145721436, 
162, 3022050468, -132.68374633789062, -1.9625272750854492, 20.555891036987305, -0.01567065715789795, -7.065866470336914, -6.650410175323486, 3.549582004547119, -2.1397619247436523, 2.4460184574127197, 
163, 3022058801, -132.6638946533203, -1.9433326721191406, 20.538238525390625, 0.024374861270189285, -6.852528095245361, -6.66618013381958, 4.0744948387146, -1.0967758893966675, 2.590815782546997, 
164, 3022067134, -132.657958984375, -1.9245456457138062, 20.511146545410156, 0.1074460819363594, -6.759485721588135, -6.575098991394043, 2.249403238296509, -0.17409995198249817, 3.256683349609375, 
165, 3022075467, -132.67088317871094, -1.905474066734314, 20.48447608947754, 0.11337529122829437, -7.096551895141602, -6.584631443023682, 0.10731083154678345, -0.2911057472229004, 3.307553291320801, 
166, 3022083800, -132.67848205566406, -1.884726881980896, 20.469507217407227, 0.14777688682079315, -7.368956565856934, -6.588252067565918, 0.6718486547470093, -1.4055557250976562, 2.4419970512390137, 
167, 3022092133, -132.6807098388672, -1.86594557762146, 20.46498680114746, 0.2358960658311844, -7.386950492858887, -6.626311779022217, 1.4835125207901, -2.2141971588134766, 1.484408974647522, 
168, 3022100466, -132.6770477294922, -1.8519675731658936, 20.467344284057617, 0.3063972592353821, -7.381814002990723, -6.7330522537231445, 2.095308542251587, -2.381765365600586, 0.4371453821659088, 
169, 3022108799, -132.6709747314453, -1.843563437461853, 20.468355178833008, 0.3861575424671173, -7.3248066902160645, -6.80933952331543, 2.4965555667877197, -1.859772801399231, 0.11381685733795166, 
170, 3022117132, -132.66424560546875, -1.8388878107070923, 20.464086532592773, 0.4550267159938812, -7.3595404624938965, -6.845564365386963, 2.4383599758148193, -1.0402710437774658, 0.1561315953731537, 
171, 3022125465, -132.65460205078125, -1.8425195217132568, 20.449462890625, 0.5560333728790283, -7.26685905456543, -6.9428019523620605, 2.863107681274414, 0.4953792691230774, 0.31951195001602173, 
172, 3022133798, -132.6533203125, -1.8482383489608765, 20.42215919494629, 0.4699985384941101, -7.265172958374023, -6.870763301849365, 1.6958417892456055, 1.8366432189941406, 1.109224557876587, 
173, 3022142131, -132.65814208984375, -1.8578040599822998, 20.3873233795166, 0.46372467279434204, -7.48378324508667, -6.842156410217285, 1.0465593338012695, 2.76350736618042, 1.4445276260375977, 
174, 3022150464, -132.6508331298828, -1.8679252862930298, 20.345806121826172, 0.4105643332004547, -7.524829387664795, -6.821741580963135, 2.3630287647247314, 3.4490723609924316, 1.8762043714523315, 
175, 3022158797, -132.6438446044922, -1.8802419900894165, 20.305171966552734, 0.3604567050933838, -7.38960599899292, -6.7096476554870605, 2.441023826599121, 3.496945381164551, 1.6709831953048706, 
176, 3022167130, -132.64251708984375, -1.8931745290756226, 20.271183013916016, 0.29785826802253723, -7.391974925994873, -6.675436019897461, 1.6703941822052002, 3.0136559009552, 1.0153610706329346, 
177, 3022175463, -132.6470489501953, -1.9015756845474243, 20.2450008392334, 0.2603818476200104, -7.33957052230835, -6.638880729675293, 1.11351478099823, 1.9020745754241943, 0.8398522734642029, 
178, 3022183796, -132.65560913085938, -1.9037840366363525, 20.221168518066406, 0.26172375679016113, -7.206566333770752, -6.678943157196045, 0.5242592692375183, 1.2452999353408813, 1.1377201080322266, 
179, 3022192129, -132.67041015625, -1.9034420251846313, 20.201257705688477, 0.2976941764354706, -7.325934410095215, -6.674782752990723, -0.09849953651428223, 0.6394336819648743, 1.1041784286499023, 
180, 3022200462, -132.67788696289062, -1.9009281396865845, 20.186826705932617, 0.22955593466758728, -7.622426509857178, -6.555445194244385, 0.6919045448303223, 0.031134100630879402, 0.7896228432655334, 
181, 3022208795, -132.6580810546875, -1.8873825073242188, 20.181884765625, 0.35697513818740845, -7.369443893432617, -6.7317609786987305, 4.11611795425415, -1.7532687187194824, 1.053065299987793, 
182, 3022217128, -132.64492797851562, -1.8718656301498413, 20.175758361816406, 0.43848326802253723, -7.52269983291626, -6.951560020446777, 3.2007932662963867, -1.7575719356536865, 1.2623335123062134, 
183, 3022225461, -132.61973571777344, -1.856762409210205, 20.16871452331543, 0.5273003578186035, -7.417419910430908, -7.026455879211426, 4.74907112121582, -1.6944328546524048, 1.3600517511367798, 
184, 3022233794, -132.61167907714844, -1.8406329154968262, 20.1527156829834, 0.6420902013778687, -7.327695846557617, -6.98996114730835, 2.5517542362213135, -0.9344073534011841, 2.1190786361694336, 
185, 3022242127, -132.60775756835938, -1.8240805864334106, 20.133407592773438, 0.5038930773735046, -7.646355628967285, -6.979053020477295, 2.1525180339813232, -0.728712260723114, 2.484811305999756, 
186, 3022250460, -132.5937957763672, -1.80782151222229, 20.109668731689453, 0.5369853973388672, -7.439918041229248, -6.954582691192627, 3.2304160594940186, -0.26191839575767517, 2.7584738731384277, 
187, 3022258793, -132.58749389648438, -1.7924830913543701, 20.088293075561523, 0.44901224970817566, -7.531394004821777, -6.990904331207275, 2.4306626319885254, -0.4485180377960205, 2.545977830886841, 
188, 3022267126, -132.58262634277344, -1.7793329954147339, 20.065176010131836, 0.3717510402202606, -7.536618709564209, -7.053829193115234, 2.144449234008789, -0.06356172263622284, 2.43453049659729, 
189, 3022275459, -132.5763397216797, -1.771027684211731, 20.042938232421875, 0.3382567763328552, -7.522017955780029, -7.036617755889893, 2.427358627319336, 0.20014964044094086, 1.9952210187911987, 
190, 3022283792, -132.56777954101562, -1.7642828226089478, 20.02280616760254, 0.31312066316604614, -7.4180121421813965, -6.926943302154541, 2.597667694091797, 0.19364361464977264, 1.6265294551849365, 
191, 3022292125, -132.5693817138672, -1.7553805112838745, 20.007307052612305, 0.24763764441013336, -7.419131278991699, -6.875839710235596, 1.5070008039474487, -0.4427677094936371, 1.501134991645813, 
192, 3022300458, -132.56924438476562, -1.739907145500183, 19.998258590698242, 0.17799536883831024, -7.507615089416504, -6.839504241943359, 1.6298468112945557, -1.4944627285003662, 1.4964990615844727, 
193, 3022308791, -132.56626892089844, -1.719787359237671, 19.994367599487305, 0.09152672439813614, -7.472405910491943, -6.790558338165283, 2.0971274375915527, -2.3775901794433594, 1.5518769025802612, 
194, 3022317124, -132.55917358398438, -1.6948251724243164, 19.998300552368164, 0.032152820378541946, -7.441256523132324, -6.719747066497803, 2.5115270614624023, -3.411470651626587, 1.282376766204834, 
195, 3022325457, -132.5529022216797, -1.6666706800460815, 20.009798049926758, 0.02077820524573326, -7.424890518188477, -6.720501899719238, 2.5451712608337402, -4.388537883758545, 1.011032223701477, 
196, 3022333790, -132.54165649414062, -1.635515809059143, 20.02496337890625, 0.06820403039455414, -7.35347318649292, -6.829357147216797, 3.0485165119171143, -4.905279636383057, 0.9203322529792786, 
197, 3022342123, -132.52793884277344, -1.6036304235458374, 20.036518096923828, 0.16548502445220947, -7.3388285636901855, -6.884833812713623, 3.437507390975952, -4.692899703979492, 1.3357055187225342, 
198, 3022350456, -132.50697326660156, -1.572955846786499, 20.047080993652344, 0.24290211498737335, -7.256126403808594, -6.9903693199157715, 4.199069976806641, -4.457812309265137, 1.2518959045410156, 
199, 3022358789, -132.4999542236328, -1.548050045967102, 20.04973793029785, 0.28352198004722595, -7.22487211227417, -6.978896141052246, 2.603008508682251, -3.338610887527466, 1.4406087398529053, 
200, 3022367122, -132.49777221679688, -1.5278126001358032, 20.044830322265625, 0.3170950710773468, -7.37406587600708, -7.06353759765625, 1.8917007446289062, -2.2433972358703613, 1.5820504426956177, 
201, 3022375455, -132.4974822998047, -1.5133733749389648, 20.03724479675293, 0.37155646085739136, -7.369966983795166, -6.980382442474365, 1.764090895652771, -1.5838818550109863, 1.3420706987380981, 
202, 3022383788, -132.50340270996094, -1.4990723133087158, 20.0310001373291, 0.35601547360420227, -7.366398334503174, -6.924408435821533, 0.9166437387466431, -1.643972635269165, 1.1661776304244995, 
203, 3022392121, -132.5106964111328, -1.4911980628967285, 20.024028778076172, 0.27072080969810486, -7.420959949493408, -6.952184200286865, 0.8566808700561523, -1.1057407855987549, 0.7136510014533997, 
204, 3022400454, -132.51458740234375, -1.4859665632247925, 20.016447067260742, 0.2263730764389038, -7.327408313751221, -6.902908802032471, 1.1567771434783936, -0.7909163236618042, 0.47157081961631775, 
205, 3022408787, -132.52137756347656, -1.482177495956421, 20.013608932495117, 0.12789283692836761, -7.320004940032959, -6.816323280334473, 0.9320508241653442, -1.1403841972351074, 0.015445384196937084, 
206, 3022417120, -132.53366088867188, -1.478643536567688, 20.013877868652344, 0.045864030718803406, -7.322007656097412, -6.809349060058594, 0.17394626140594482, -1.347449541091919, -0.3139664828777313, 
207, 3022425453, -132.5488739013672, -1.4764728546142578, 20.017684936523438, -0.02423074096441269, -7.342677593231201, -6.7852044105529785, -0.05847730487585068, -1.5948959589004517, -0.6663798689842224, 
208, 3022433786, -132.5636749267578, -1.4717764854431152, 20.020578384399414, -0.04308159649372101, -7.353521823883057, -6.763567924499512, -0.12069427222013474, -1.673454761505127, -0.4234032928943634, 
209, 3022442119, -132.5854949951172, -1.4631561040878296, 20.031028747558594, -0.0019400224555283785, -7.334133148193359, -6.6858720779418945, -0.8299268484115601, -2.7039926052093506, -0.6398179531097412, 
210, 3022450452, -132.6045379638672, -1.4492236375808716, 20.049535751342773, 0.043872907757759094, -7.538951873779297, -6.775956153869629, -0.5846192240715027, -3.804046630859375, -0.8771594166755676, 
211, 3022458785, -132.60415649414062, -1.4338511228561401, 20.080286026000977, 0.0899013802409172, -7.611433029174805, -6.79643440246582, 1.894249677658081, -5.042558670043945, -1.6955472230911255, 
212, 3022467118, -132.58749389648438, -1.4139833450317383, 20.120439529418945, 0.1114494800567627, -7.533821105957031, -6.815445423126221, 3.7624878883361816, -6.197697639465332, -2.109921455383301, 
213, 3022475451, -132.55654907226562, -1.3891870975494385, 20.163084030151367, 0.16724905371665955, -7.5640153884887695, -6.909280300140381, 5.594264984130859, -6.857776165008545, -1.827165961265564, 
214, 3022483784, -132.5127716064453, -1.361871600151062, 20.204347610473633, 0.20826555788516998, -7.424859046936035, -6.9964070320129395, 7.0185699462890625, -6.901013374328613, -1.5348305702209473, 
215, 3022492117, -132.46832275390625, -1.3332335948944092, 20.23800277709961, 0.2746836841106415, -7.320216178894043, -7.037262439727783, 7.180708408355713, -6.375076770782471, -0.7535709142684937, 
216, 3022500450, -132.43283081054688, -1.3004751205444336, 20.26515769958496, 0.3196336030960083, -7.379570484161377, -6.959289073944092, 5.979848384857178, -6.094510078430176, 0.09769269824028015, 
217, 3022508783, -132.39968872070312, -1.2670179605484009, 20.28931999206543, 0.2778194546699524, -7.524856090545654, -7.013500690460205, 5.795527935028076, -5.922920227050781, 0.44896626472473145, 
218, 3022517116, -132.3605499267578, -1.2338862419128418, 20.310606002807617, 0.22363127768039703, -7.519093990325928, -6.971592426300049, 6.398602485656738, -5.603728294372559, 0.6104767918586731, 
219, 3022525449, -132.31874084472656, -1.196530818939209, 20.330280303955078, 0.116141177713871, -7.587117671966553, -6.896084785461426, 6.82016134262085, -5.841582298278809, 1.1641030311584473, 
220, 3022533782, -132.26219177246094, -1.1529608964920044, 20.355243682861328, 0.08263543993234634, -7.7855658531188965, -6.79730224609375, 8.4945650100708, -6.771379470825195, 1.248194694519043, 
221, 3022542115, -132.18734741210938, -1.1077771186828613, 20.389432907104492, 0.08874523639678955, -7.847531318664551, -6.848781108856201, 10.816725730895996, -7.7578606605529785, 0.6970786452293396, 
222, 3022550448, -132.10617065429688, -1.055602788925171, 20.4241886138916, 0.1364254355430603, -7.628915309906006, -6.929115295410156, 11.464537620544434, -8.329827308654785, 1.2410227060317993, 
223, 3022558781, -132.0423126220703, -1.0019562244415283, 20.456472396850586, 0.23556137084960938, -7.356178283691406, -6.938107967376709, 9.486247062683105, -8.262846946716309, 1.6217271089553833, 
224, 3022567114, -131.992919921875, -0.9464088678359985, 20.47977066040039, 0.2781788408756256, -7.350564002990723, -7.009790897369385, 7.620119571685791, -7.5759477615356445, 2.4761407375335693, 
225, 3022575447, -131.9507598876953, -0.8966769576072693, 20.493553161621094, 0.245965838432312, -7.24934196472168, -7.040451526641846, 6.838732719421387, -6.295159816741943, 2.768630027770996, 
226, 3022583780, -131.9194793701172, -0.8550450205802917, 20.495454788208008, 0.24870945513248444, -7.251165866851807, -7.053534507751465, 5.402132987976074, -4.545733451843262, 2.9593281745910645, 
227, 3022592113, -131.90008544921875, -0.823959231376648, 20.491783142089844, 0.2568504810333252, -7.309456825256348, -6.995916366577148, 4.074904441833496, -3.237844228744507, 2.5096185207366943, 
228, 3022600446, -131.8834686279297, -0.8003777861595154, 20.483388900756836, 0.19978439807891846, -7.425189018249512, -6.9583048820495605, 3.6251187324523926, -2.177158832550049, 2.1750199794769287, 
229, 3022608779, -131.86900329589844, -0.7855984568595886, 20.475244522094727, 0.15321233868598938, -7.423703670501709, -6.849372386932373, 3.478066921234131, -1.5315773487091064, 1.4092564582824707, 
230, 3022617112, -131.85659790039062, -0.7762478590011597, 20.46768569946289, 0.11227211356163025, -7.5030975341796875, -6.8265275955200195, 3.1231822967529297, -1.110069751739502, 0.8362663984298706, 
231, 3022625445, -131.84291076660156, -0.7748010754585266, 20.459688186645508, 0.06473688036203384, -7.402935981750488, -6.745793342590332, 3.387162446975708, -0.4749903976917267, 0.21071553230285645, 
232, 3022633778, -131.8299102783203, -0.7796769142150879, 20.45137596130371, 0.045785028487443924, -7.385477066040039, -6.711566925048828, 3.19095778465271, 0.09524653851985931, -0.3768622875213623, 
233, 3022642111, -131.8172149658203, -0.788695752620697, 20.443988800048828, 0.025948019698262215, -7.408279895782471, -6.643591403961182, 3.2702338695526123, 0.30940717458724976, -0.7783398032188416, 
234, 3022650444, -131.79641723632812, -0.8027468323707581, 20.438955307006836, -0.012185050174593925, -7.252111911773682, -6.614304542541504, 4.13292121887207, 0.5353759527206421, -1.4586539268493652, 
235, 3022658777, -131.78407287597656, -0.819398820400238, 20.43218994140625, -0.06453242152929306, -7.092735290527344, -6.608428955078125, 3.2274832725524902, 0.8667216897010803, -1.5101895332336426, 
236, 3022667110, -131.7777862548828, -0.8417491316795349, 20.422595977783203, -0.06239565089344978, -7.079123020172119, -6.627295017242432, 2.38451886177063, 1.6077159643173218, -1.8387435674667358, 
237, 3022675443, -131.77952575683594, -0.8700480461120605, 20.406476974487305, -0.030949339270591736, -7.09627628326416, -6.623955249786377, 1.5205249786376953, 2.633821964263916, -1.8090308904647827, 
238, 3022683776, -131.7906494140625, -0.9012908339500427, 20.38496208190918, -0.03859416022896767, -7.087760925292969, -6.582957744598389, 0.27211281657218933, 3.385446071624756, -1.680063247680664, 
239, 3022692109, -131.81689453125, -0.9301495552062988, 20.35840606689453, 0.005848343018442392, -7.206546306610107, -6.59925651550293, -1.4409542083740234, 3.614258289337158, -1.0246206521987915, 
240, 3022700442, -131.84461975097656, -0.9561052322387695, 20.327924728393555, 0.012517504394054413, -7.301575660705566, -6.5541205406188965, -1.7417935132980347, 3.7659969329833984, -0.4857739508152008, 
241, 3022708775, -131.8740692138672, -0.9809211492538452, 20.29628562927246, 0.04672946035861969, -7.371639251708984, -6.588037967681885, -1.8379749059677124, 3.745300531387329, -0.2517879009246826, 
242, 3022717108, -131.89939880371094, -1.005865216255188, 20.261367797851562, 0.10918111354112625, -7.431445121765137, -6.6389875411987305, -1.4675676822662354, 4.080770492553711, -0.03596239164471626, 
243, 3022725441, -131.92762756347656, -1.033515214920044, 20.225650787353516, 0.1431712508201599, -7.527261257171631, -6.654107570648193, -1.704063892364502, 4.339807033538818, -0.1762259602546692, 
244, 3022733774, -131.95645141601562, -1.0615843534469604, 20.19441795349121, 0.19433647394180298, -7.59168815612793, -6.655452728271484, -1.8826464414596558, 4.001673698425293, -0.6043679118156433, 
245, 3022742107, -131.98387145996094, -1.090324878692627, 20.169422149658203, 0.26713138818740845, -7.630957126617432, -6.684357643127441, -1.5883643627166748, 3.470229148864746, -1.1288961172103882, 
246, 3022750440, -132.00318908691406, -1.1235241889953613, 20.14980697631836, 0.3022646903991699, -7.5812668800354, -6.803075313568115, -0.7184023261070251, 3.376711845397949, -1.990789532661438, 
247, 3022758773, -132.02125549316406, -1.1649540662765503, 20.13054084777832, 0.3252253830432892, -7.524875640869141, -6.8308234214782715, -0.45800817012786865, 3.9788002967834473, -2.7167742252349854, 
248, 3022767106, -132.04014587402344, -1.213791847229004, 20.109954833984375, 0.33111754059791565, -7.537187099456787, -6.808645248413086, -0.6703885793685913, 4.721011161804199, -3.3039164543151855, 
249, 3022775439, -132.0594482421875, -1.2697302103042603, 20.095314025878906, 0.3005112111568451, -7.614835262298584, -6.802706241607666, -0.6000134348869324, 4.734663486480713, -4.376832485198975, 
250, 3022783772, -132.0714569091797, -1.3310354948043823, 20.088205337524414, 0.332709938287735, -7.6618804931640625, -6.762136936187744, 0.18653564155101776, 4.5244855880737305, -5.495405673980713, 
251, 3022792105, -132.07275390625, -1.3935924768447876, 20.088645935058594, 0.3386805057525635, -7.618795871734619, -6.748879909515381, 1.600851058959961, 3.924266815185547, -6.175028324127197, 
252, 3022800438, -132.06253051757812, -1.4507513046264648, 20.09406089782715, 0.33388203382492065, -7.468955039978027, -6.750448226928711, 2.8906819820404053, 3.0770254135131836, -6.130972385406494, 
253, 3022808771, -132.05589294433594, -1.5028241872787476, 20.103195190429688, 0.42440053820610046, -7.3721089363098145, -6.760626792907715, 2.5747811794281006, 2.3029372692108154, -5.941657066345215, 
254, 3022817104, -132.04747009277344, -1.5532402992248535, 20.11235237121582, 0.40421542525291443, -7.326942443847656, -6.812514305114746, 2.686612844467163, 2.2001218795776367, -5.833129405975342, 
255, 3022825437, -132.0409393310547, -1.6012376546859741, 20.118553161621094, 0.35634464025497437, -7.24192476272583, -6.760172367095947, 2.554802179336548, 2.2362122535705566, -5.341925621032715, 
256, 3022833770, -132.03302001953125, -1.646639108657837, 20.122455596923828, 0.34709057211875916, -7.176161289215088, -6.772796154022217, 2.609053134918213, 2.2625184059143066, -4.965396404266357, 
257, 3022842103, -132.0315399169922, -1.689332365989685, 20.123018264770508, 0.3388802707195282, -7.242667198181152, -6.803497791290283, 1.9345663785934448, 2.311915159225464, -4.417444229125977, 
258, 3022850436, -132.03170776367188, -1.7331781387329102, 20.123451232910156, 0.36076486110687256, -7.293194770812988, -6.8376359939575195, 1.6261709928512573, 2.447312355041504, -4.548640251159668, 
259, 3022858769, -132.03794860839844, -1.7772974967956543, 20.125619888305664, 0.4083544909954071, -7.293274402618408, -6.816439151763916, 1.01164710521698, 2.2851099967956543, -4.67055082321167, 
260, 3022867102, -132.04820251464844, -1.8220821619033813, 20.129791259765625, 0.41746312379837036, -7.333009243011475, -6.89992618560791, 0.43276530504226685, 2.1897737979888916, -4.9318671226501465, 
261, 3022875435, -132.06454467773438, -1.8669729232788086, 20.131322860717773, 0.40643250942230225, -7.362860202789307, -6.876043796539307, -0.2004057765007019, 2.403242588043213, -4.688121795654297, 
262, 3022883768, -132.0854034423828, -1.9129153490066528, 20.131145477294922, 0.42544811964035034, -7.395630836486816, -6.917264461517334, -0.8568474650382996, 2.6727302074432373, -4.682640552520752, 
263, 3022892101, -132.1122589111328, -1.957269549369812, 20.130176544189453, 0.4034152328968048, -7.544427394866943, -6.902222156524658, -1.4708077907562256, 2.586320638656616, -4.436347007751465, 
264, 3022900434, -132.1327667236328, -2.00351619720459, 20.131132125854492, 0.3850724995136261, -7.581097602844238, -6.88789176940918, -0.8125604391098022, 2.59975528717041, -4.797725677490234, 
265, 3022908767, -132.1553955078125, -2.050630569458008, 20.13376808166504, 0.3201528787612915, -7.512742519378662, -6.8666090965271, -0.9453702569007874, 2.4915096759796143, -4.967445373535156, 
266, 3022917100, -132.17848205566406, -2.0984182357788086, 20.137134552001953, 0.30765897035598755, -7.467790603637695, -6.857456207275391, -1.109928846359253, 2.5128843784332275, -5.127444267272949, 
267, 3022925433, -132.20730590820312, -2.145777940750122, 20.139028549194336, 0.26634496450424194, -7.501269817352295, -6.873957633972168, -1.694368839263916, 2.579993724822998, -4.927371978759766, 
268, 3022933766, -132.23675537109375, -2.190927743911743, 20.135547637939453, 0.2622016966342926, -7.459409236907959, -6.871147155761719, -1.905827283859253, 2.9131200313568115, -4.3384623527526855, 
269, 3022942099, -132.26910400390625, -2.2347753047943115, 20.129199981689453, 0.2502771317958832, -7.449674606323242, -6.82220983505249, -2.1533117294311523, 3.033890962600708, -3.9468204975128174, 
270, 3022950432, -132.30238342285156, -2.275033473968506, 20.12529754638672, 0.24799785017967224, -7.550971984863281, -6.817671298980713, -2.366370916366577, 2.559130907058716, -3.864393949508667, 
271, 3022958765, -132.33209228515625, -2.3112823963165283, 20.126760482788086, 0.24210722744464874, -7.593498229980469, -6.778160572052002, -1.8024098873138428, 1.7322139739990234, -3.900036334991455, 
272, 3022967098, -132.3551483154297, -2.3424510955810547, 20.132673263549805, 0.2773798406124115, -7.553139686584473, -6.840551376342773, -1.0922164916992188, 0.9584205746650696, -3.847360134124756, 
273, 3022975431, -132.3763427734375, -2.369394302368164, 20.145109176635742, 0.30621227622032166, -7.526129245758057, -6.876543998718262, -0.7284432649612427, 0.011590440757572651, -3.95965313911438, 
274, 3022983764, -132.392822265625, -2.3920953273773193, 20.16138458251953, 0.34207817912101746, -7.541270732879639, -6.907075881958008, -0.2496619075536728, -0.6413804292678833, -3.9320921897888184, 
275, 3022992097, -132.40711975097656, -2.414292335510254, 20.174671173095703, 0.30292606353759766, -7.537929058074951, -6.974474906921387, 0.10344309359788895, -0.4463280737400055, -3.6120684146881104, 
276, 3023000430, -132.41806030273438, -2.4355742931365967, 20.184127807617188, 0.31281131505966187, -7.54792594909668, -6.9726128578186035, 0.3795261085033417, -0.15065012872219086, -3.2545573711395264, 
277, 3023008763, -132.42955017089844, -2.4580631256103516, 20.187103271484375, 0.29017403721809387, -7.597600936889648, -6.942373752593994, 0.38966938853263855, 0.49317654967308044, -2.8028504848480225, 
278, 3023017096, -132.43775939941406, -2.4818763732910156, 20.1861515045166, 0.25509464740753174, -7.5779032707214355, -6.873661518096924, 0.6561598181724548, 0.9758767485618591, -2.6376895904541016, 
279, 3023025429, -132.44927978515625, -2.5043444633483887, 20.1835994720459, 0.2044864296913147, -7.620175838470459, -6.860317707061768, 0.35877859592437744, 0.9833561182022095, -2.3534743785858154, 
280, 3023033762, -132.45150756835938, -2.521077871322632, 20.178478240966797, 0.20089568197727203, -7.633942127227783, -6.845013618469238, 1.3515605926513672, 0.7715519666671753, -1.6726735830307007, 
281, 3023042095, -132.44818115234375, -2.538313627243042, 20.175216674804688, 0.21389952301979065, -7.556941986083984, -6.8392333984375, 2.1329102516174316, 0.6242573261260986, -1.8351064920425415, 
282, 3023050428, -132.4427947998047, -2.5538229942321777, 20.17344856262207, 0.21236109733581543, -7.5224761962890625, -6.845187187194824, 2.2833168506622314, 0.3746466040611267, -1.835336685180664, 
283, 3023058761, -132.43931579589844, -2.569324254989624, 20.17249298095703, 0.2003592848777771, -7.373620986938477, -6.816572666168213, 2.161316156387329, 0.2819230854511261, -1.8696855306625366, 
284, 3023067094, -132.44078063964844, -2.582818031311035, 20.170072555541992, 0.19538529217243195, -7.351338863372803, -6.8181233406066895, 1.456976056098938, 0.26932087540626526, -1.604168176651001, 
285, 3023075427, -132.44497680664062, -2.5966315269470215, 20.168560028076172, 0.23225736618041992, -7.351244926452637, -6.837635517120361, 1.237615942955017, 0.1955775022506714, -1.6777582168579102, 
286, 3023083760, -132.45606994628906, -2.6112160682678223, 20.165908813476562, 0.25446048378944397, -7.390749931335449, -6.811990737915039, 0.30227357149124146, 0.37906503677368164, -1.6819714307785034, 
287, 3023092093, -132.4696502685547, -2.6264522075653076, 20.165477752685547, 0.26769745349884033, -7.4554338455200195, -6.832485675811768, 0.1150079146027565, 0.21644027531147003, -1.892059326171875, 
288, 3023100426, -132.4845428466797, -2.6400744915008545, 20.168880462646484, 0.2845912575721741, -7.387760639190674, -6.790318965911865, -0.12106567621231079, -0.23328164219856262, -2.0867021083831787, 
289, 3023108759, -132.50592041015625, -2.653209924697876, 20.173141479492188, 0.24901089072227478, -7.4398393630981445, -6.8381195068359375, -0.7947456240653992, -0.36465704441070557, -2.0867531299591064, 
290, 3023117092, -132.5264129638672, -2.6692159175872803, 20.174575805664062, 0.24821090698242188, -7.429731845855713, -6.895592212677002, -0.8056701421737671, 0.13428263366222382, -2.1360220909118652, 
291, 3023125425, -132.5526580810547, -2.6880345344543457, 20.172748565673828, 0.25594401359558105, -7.4222869873046875, -6.886257171630859, -1.4127274751663208, 0.6362448334693909, -2.09629487991333, 
292, 3023133758, -132.5803680419922, -2.708693742752075, 20.166208267211914, 0.2667449712753296, -7.485288143157959, -6.8801422119140625, -1.7147705554962158, 1.2178927659988403, -1.9014214277267456, 
293, 3023142091, -132.60885620117188, -2.7318079471588135, 20.156702041625977, 0.2805798351764679, -7.559708118438721, -6.915289878845215, -1.7265914678573608, 1.664080023765564, -1.8540477752685547, 
294, 3023150424, -132.6341552734375, -2.752768039703369, 20.146318435668945, 0.32329368591308594, -7.466035842895508, -6.8570661544799805, -1.4506878852844238, 1.582101821899414, -1.612851619720459, 
295, 3023158757, -132.662109375, -2.7699198722839355, 20.140581130981445, 0.27653220295906067, -7.57853364944458, -6.810056686401367, -1.6379151344299316, 0.8520063161849976, -1.6317676305770874, 
296, 3023167090, -132.6806182861328, -2.7830469608306885, 20.145225524902344, 0.29861709475517273, -7.6449503898620605, -6.860835552215576, -0.5486440658569336, -0.3775410056114197, -2.140876054763794, 
297, 3023175423, -132.68995666503906, -2.792821168899536, 20.156267166137695, 0.32850679755210876, -7.57112979888916, -6.853010177612305, 0.6900475025177002, -1.2246806621551514, -2.3442533016204834, 
298, 3023183756, -132.69517517089844, -2.800618886947632, 20.172531127929688, 0.30455002188682556, -7.524275302886963, -6.8819403648376465, 1.1164734363555908, -1.8359644412994385, -2.6160717010498047, 
299, 3023192089, -132.69863891601562, -2.811777353286743, 20.188751220703125, 0.35915932059288025, -7.446093559265137, -7.007328510284424, 1.4222559928894043, -1.56696355342865, -2.8891191482543945, 
300, 3023200422, -132.7047119140625, -2.8243134021759033, 20.198591232299805, 0.4222031235694885, -7.320263862609863, -7.016787528991699, 0.974109411239624, -0.8828330636024475, -2.5108485221862793, 
301, 3023208755, -132.71922302246094, -2.8366305828094482, 20.19908332824707, 0.4926862418651581, -7.399454116821289, -7.0296783447265625, 0.006288294680416584, -0.08598698675632477, -1.7153853178024292, 
302, 3023217088, -132.72853088378906, -2.850494861602783, 20.192466735839844, 0.49602821469306946, -7.411661624908447, -7.033519268035889, 0.4901411533355713, 0.6748454570770264, -1.286679744720459, 
303, 3023225421, -132.7462615966797, -2.862846612930298, 20.181474685668945, 0.48582109808921814, -7.4340996742248535, -7.0187201499938965, -0.4505031704902649, 0.9278884530067444, -0.7855885028839111, 
304, 3023233754, -132.7642822265625, -2.8748128414154053, 20.165058135986328, 0.45776763558387756, -7.49618673324585, -6.913394451141357, -0.6133584380149841, 1.3819775581359863, -0.32499340176582336, 
305, 3023242087, -132.7764892578125, -2.8824989795684814, 20.150949478149414, 0.3904951512813568, -7.716894626617432, -6.885512828826904, 0.1922220140695572, 0.8232030868530273, -0.11708266288042068, 
306, 3023250420, -132.76748657226562, -2.891038417816162, 20.14584732055664, 0.37729793787002563, -7.6856255531311035, -6.870201110839844, 2.6966280937194824, 0.108514703810215, -0.9412975311279297, 
307, 3023258753, -132.75758361816406, -2.898434638977051, 20.144611358642578, 0.4076371192932129, -7.45481538772583, -6.8806047439575195, 2.9238266944885254, -0.3324471712112427, -1.1413447856903076, 
308, 3023267086, -132.75152587890625, -2.900559425354004, 20.143129348754883, 0.4205719232559204, -7.485716342926025, -6.87236213684082, 2.3627467155456543, -0.7328488230705261, -0.6707855463027954, 
309, 3023275419, -132.7445068359375, -2.900890827178955, 20.14572525024414, 0.42100268602371216, -7.499039173126221, -6.833593368530273, 2.6007282733917236, -1.2443907260894775, -0.8315661549568176, 
310, 3023283752, -132.73422241210938, -2.8971877098083496, 20.15113067626953, 0.4257238209247589, -7.457533836364746, -6.852415084838867, 2.912914991378784, -1.814845323562622, -0.7197088003158569, 
311, 3023292085, -132.72230529785156, -2.891472578048706, 20.1551513671875, 0.4418956935405731, -7.360196590423584, -6.900434970855713, 3.19675874710083, -1.8609123229980469, -0.4145791530609131, 
312, 3023300418, -132.71046447753906, -2.88370943069458, 20.156736373901367, 0.4242384731769562, -7.343837738037109, -6.86629056930542, 3.075718641281128, -1.8085442781448364, -0.0487695038318634, 
313, 3023308751, -132.70423889160156, -2.8740956783294678, 20.155675888061523, 0.414630651473999, -7.301183223724365, -6.905654430389404, 2.479893684387207, -1.730613112449646, 0.3418987989425659, 
314, 3023317084, -132.69915771484375, -2.8614330291748047, 20.153221130371094, 0.3980628252029419, -7.276970863342285, -6.870362281799316, 2.241732358932495, -1.8514866828918457, 0.7127161622047424, 
315, 3023325417, -132.70326232910156, -2.845053195953369, 20.15341567993164, 0.39757394790649414, -7.315288066864014, -6.831554889678955, 1.2456588745117188, -2.3922927379608154, 0.8338842988014221, 
316, 3023333750, -132.710693359375, -2.8234658241271973, 20.155492782592773, 0.3985047936439514, -7.440784454345703, -6.804082870483398, 0.7682093381881714, -2.976527690887451, 1.1319315433502197, 
317, 3023342083, -132.70974731445312, -2.8005452156066895, 20.163599014282227, 0.41031497716903687, -7.573733806610107, -6.801816940307617, 1.9006657600402832, -3.621929407119751, 0.7654173970222473, 
318, 3023350416, -132.69854736328125, -2.779092311859131, 20.177637100219727, 0.44306349754333496, -7.393124103546143, -6.800750255584717, 3.0734903812408447, -4.018591403961182, 0.14550167322158813, 
319, 3023358749, -132.6952667236328, -2.7615203857421875, 20.193052291870117, 0.45249035954475403, -7.288841247558594, -6.86945915222168, 2.221689224243164, -3.828073501586914, -0.2970995008945465, 
320, 3023367082, -132.69979858398438, -2.7480251789093018, 20.206073760986328, 0.5129648447036743, -7.271270275115967, -6.878999710083008, 1.176449179649353, -3.2819011211395264, -0.4727107286453247, 
321, 3023375415, -132.70590209960938, -2.7379069328308105, 20.21593475341797, 0.5044660568237305, -7.21489953994751, -6.827892780303955, 1.0637849569320679, -2.7324371337890625, -0.5048694014549255, 
322, 3023383748, -132.70213317871094, -2.7392430305480957, 20.233272552490234, 0.4809284210205078, -7.142591953277588, -6.7811970710754395, 2.196305274963379, -2.4559950828552246, -2.131795883178711, 
323, 3023392081, -132.70309448242188, -2.7449331283569336, 20.258718490600586, 0.4402288496494293, -7.216148853302002, -6.73306131362915, 1.773055911064148, -2.8185393810272217, -3.166585683822632, 
324, 3023400414, -132.70445251464844, -2.7539217472076416, 20.298086166381836, 0.37832215428352356, -7.263676166534424, -6.718157768249512, 1.7084823846817017, -3.7741293907165527, -4.597448825836182, 
325, 3023408747, -132.71041870117188, -2.7560665607452393, 20.34366226196289, 0.41355034708976746, -7.37819242477417, -6.6840739250183105, 1.2880759239196777, -4.879819869995117, -4.491635799407959, 
326, 3023417080, -132.71072387695312, -2.750025749206543, 20.400375366210938, 0.4096548557281494, -7.333913326263428, -6.698042869567871, 1.935347557067871, -6.522741317749023, -4.6810526847839355, 
327, 3023425413, -132.7161407470703, -2.7326879501342773, 20.458288192749023, 0.46475857496261597, -7.331170558929443, -6.777340412139893, 1.4209623336791992, -7.552101135253906, -3.7777154445648193, 
328, 3023433746, -132.7139434814453, -2.7123594284057617, 20.519630432128906, 0.49290362000465393, -7.360652446746826, -6.863864898681641, 2.2582664489746094, -8.094559669494629, -3.7996163368225098, 
329, 3023442079, -132.7089080810547, -2.6914145946502686, 20.573360443115234, 0.5905939340591431, -7.288722038269043, -6.9421610832214355, 2.6455917358398438, -7.476935386657715, -3.1186225414276123, 
330, 3023450412, -132.71011352539062, -2.6661856174468994, 20.617387771606445, 0.5293567776679993, -7.23878288269043, -6.944656848907471, 1.7478512525558472, -6.968506336212158, -1.9594119787216187, 
331, 3023458745, -132.7198486328125, -2.6399519443511963, 20.652956008911133, 0.5305508971214294, -7.2926836013793945, -6.947160243988037, 0.7677994966506958, -6.307069778442383, -1.1755139827728271, 
332, 3023467078, -132.73788452148438, -2.6154935359954834, 20.680702209472656, 0.5527103543281555, -7.430405139923096, -6.979478359222412, -0.36546388268470764, -5.473147392272949, -0.7065430283546448, 
333, 3023475411, -132.7517547607422, -2.5965864658355713, 20.704730987548828, 0.5323690176010132, -7.563448429107666, -6.958827018737793, 0.20441441237926483, -4.694218158721924, -0.8848693370819092, 
334, 3023483744, -132.76089477539062, -2.5794334411621094, 20.723003387451172, 0.467216819524765, -7.605684757232666, -6.899907112121582, 0.6488213539123535, -4.043488502502441, -0.5804698467254639, 
335, 3023492077, -132.76571655273438, -2.560439109802246, 20.736595153808594, 0.4069189131259918, -7.631033420562744, -6.8888068199157715, 1.2329795360565186, -3.7807376384735107, -0.026818102225661278, 
336, 3023500410, -132.7641143798828, -2.5395925045013428, 20.746252059936523, 0.4182727634906769, -7.632165908813477, -6.89150333404541, 1.8903688192367554, -3.5867867469787598, 0.44595661759376526, 
337, 3023508743, -132.76048278808594, -2.519484043121338, 20.75579071044922, 0.42261767387390137, -7.665475368499756, -6.845064163208008, 2.2212533950805664, -3.517167329788208, 0.3993643522262573, 
338, 3023517076, -132.74656677246094, -2.5018622875213623, 20.766223907470703, 0.42623692750930786, -7.653344631195068, -6.837975025177002, 3.3697450160980225, -3.391043186187744, 0.0998314768075943, 
339, 3023525409, -132.7307586669922, -2.4840879440307617, 20.77745246887207, 0.3758840262889862, -7.551025390625, -6.81806755065918, 3.6927144527435303, -3.474775791168213, 0.05651780962944031, 
340, 3023533742, -132.7079315185547, -2.4669196605682373, 20.786039352416992, 0.34148553013801575, -7.535647392272949, -6.872882843017578, 4.428815841674805, -3.1922249794006348, 0.20974214375019073, 
341, 3023542075, -132.6846160888672, -2.450568914413452, 20.789220809936523, 0.35896748304367065, -7.420973300933838, -6.881179332733154, 4.54702615737915, -2.6513805389404297, 0.5846576690673828, 
342, 3023550408, -132.667724609375, -2.436183214187622, 20.78945541381836, 0.38205620646476746, -7.388771057128906, -6.857942581176758, 3.6720950603485107, -2.227285623550415, 0.6476431488990784, 
343, 3023558741, -132.65301513671875, -2.422086238861084, 20.783754348754883, 0.38293543457984924, -7.319929122924805, -6.851698875427246, 3.4680004119873047, -1.6827269792556763, 1.1086223125457764, 
344, 3023567074, -132.6438751220703, -2.408633232116699, 20.773696899414062, 0.3288341760635376, -7.418837070465088, -6.843315601348877, 2.6913516521453857, -1.2444931268692017, 1.4009320735931396, 
345, 3023575407, -132.6301727294922, -2.3965249061584473, 20.760332107543945, 0.3534042537212372, -7.483692169189453, -6.849587917327881, 3.310959815979004, -0.8434767127037048, 1.5564360618591309, 
346, 3023583740, -132.6138153076172, -2.3863024711608887, 20.74437141418457, 0.3860814571380615, -7.401570796966553, -6.846255302429199, 3.526759386062622, -0.458545982837677, 1.5946524143218994, 
347, 3023592073, -132.60244750976562, -2.376539707183838, 20.727144241333008, 0.4070216417312622, -7.403924942016602, -6.79667329788208, 3.0113890171051025, -0.31266018748283386, 1.6589316129684448, 
348, 3023600406, -132.59298706054688, -2.3690590858459473, 20.71044921875, 0.4212002754211426, -7.472609519958496, -6.781820774078369, 2.6969356536865234, -0.17041151225566864, 1.4116389751434326, 
349, 3023608739, -132.5836944580078, -2.3619091510772705, 20.6990966796875, 0.4105706810951233, -7.5326361656188965, -6.7533111572265625, 2.7893519401550293, -0.6154588460922241, 0.954501748085022, 
350, 3023617072, -132.56724548339844, -2.356353282928467, 20.690601348876953, 0.41062939167022705, -7.472606182098389, -6.8149614334106445, 3.578218698501587, -0.7384071350097656, 0.5749755501747131, 
351, 3023625405, -132.54859924316406, -2.353834867477417, 20.681089401245117, 0.41473621129989624, -7.3465094566345215, -6.833034038543701, 3.9198102951049805, -0.40045294165611267, 0.39739206433296204, 
352, 3023633738, -132.53517150878906, -2.354243040084839, 20.66533851623535, 0.39483729004859924, -7.2565412521362305, -6.849488258361816, 3.1821205615997314, 0.3881453275680542, 0.6354763507843018, 
353, 3023642071, -132.52981567382812, -2.3582100868225098, 20.643680572509766, 0.3741726875305176, -7.275210857391357, -6.899993896484375, 2.262748956680298, 1.1975295543670654, 0.8065795302391052, 
354, 3023650404, -132.52749633789062, -2.363556146621704, 20.617284774780273, 0.3963514566421509, -7.261979103088379, -6.8116302490234375, 1.7940081357955933, 1.729486107826233, 1.061876654624939, 
355, 3023658737, -132.52694702148438, -2.3700320720672607, 20.58898162841797, 0.36317095160484314, -7.369239330291748, -6.805034637451172, 1.6557424068450928, 1.9870110750198364, 1.1206867694854736, 
356, 3023667070, -132.51976013183594, -2.3727214336395264, 20.56056022644043, 0.34987881779670715, -7.439528942108154, -6.776005744934082, 2.367485284805298, 1.693497896194458, 1.4605876207351685, 
357, 3023675403, -132.50851440429688, -2.3772854804992676, 20.535186767578125, 0.40311694145202637, -7.356970310211182, -6.800600528717041, 2.952489137649536, 1.5749810934066772, 1.0532445907592773, 
358, 3023683736, -132.4998779296875, -2.3820886611938477, 20.510093688964844, 0.41435158252716064, -7.278431415557861, -6.833908557891846, 2.55644154548645, 1.5700628757476807, 1.0034247636795044, 
359, 3023692069, -132.49696350097656, -2.387923240661621, 20.48166847229004, 0.4074270725250244, -7.256555557250977, -6.78751802444458, 1.936295509338379, 1.947821855545044, 1.1853115558624268, 
360, 3023700402, -132.49485778808594, -2.39846134185791, 20.453630447387695, 0.3963489234447479, -7.408120155334473, -6.811142444610596, 1.7582509517669678, 2.2966620922088623, 0.7335533499717712, 
361, 3023708735, -132.485595703125, -2.4112212657928467, 20.42752456665039, 0.39374643564224243, -7.431920528411865, -6.806758403778076, 2.7122271060943604, 2.306292772293091, 0.3873000144958496, 
362, 3023717068, -132.47171020507812, -2.4273040294647217, 20.402666091918945, 0.40134453773498535, -7.318042278289795, -6.8300461769104, 3.184015989303589, 2.4639742374420166, -0.016265036538243294, 
363, 3023725401, -132.46250915527344, -2.4456467628479004, 20.374374389648438, 0.41875386238098145, -7.252768039703369, -6.822578430175781, 2.6905317306518555, 2.9516944885253906, 0.06750630587339401, 
364, 3023733734, -132.46005249023438, -2.4638478755950928, 20.346067428588867, 0.3980409801006317, -7.338136196136475, -6.845746040344238, 1.7956477403640747, 2.9405016899108887, 0.07396110147237778, 
365, 3023742067, -132.4561309814453, -2.484257459640503, 20.325714111328125, 0.4444388747215271, -7.295341968536377, -6.7809929847717285, 2.0942840576171875, 2.417356491088867, -0.7594620585441589, 
366, 3023750400, -132.45401000976562, -2.5009117126464844, 20.30853843688965, 0.3886009156703949, -7.387061595916748, -6.781406402587891, 1.810990571975708, 1.8310465812683105, -0.6903293132781982, 
367, 3023758733, -132.4413604736328, -2.5192360877990723, 20.29446029663086, 0.3600500524044037, -7.305686950683594, -6.805143356323242, 3.1742563247680664, 1.6925243139266968, -1.0831490755081177, 
368, 3023767066, -132.433837890625, -2.534597873687744, 20.280853271484375, 0.40594714879989624, -7.2634124755859375, -6.799300193786621, 2.474194288253784, 1.4099996089935303, -0.8640962839126587, 
369, 3023775399, -132.43202209472656, -2.551162004470825, 20.26993179321289, 0.404602587223053, -7.2235589027404785, -6.789198875427246, 1.8913421630859375, 1.2721437215805054, -1.1834031343460083, 
370, 3023783732, -132.43319702148438, -2.5705630779266357, 20.26022720336914, 0.45077356696128845, -7.207960605621338, -6.856950759887695, 1.4536848068237305, 1.3917237520217896, -1.5394538640975952, 
371, 3023792065, -132.43594360351562, -2.5952887535095215, 20.25436019897461, 0.43567565083503723, -7.255088806152344, -6.84149169921875, 1.3673646450042725, 1.4849597215652466, -2.31469464302063, 
372, 3023800398, -132.4376220703125, -2.6263539791107178, 20.25275230407715, 0.4867900013923645, -7.274693965911865, -6.852216720581055, 1.438636302947998, 1.6221110820770264, -3.2260613441467285, 
373, 3023808731, -132.43807983398438, -2.6614227294921875, 20.254701614379883, 0.5452349781990051, -7.215017795562744, -6.866820335388184, 1.6850197315216064, 1.6306663751602173, -3.8643431663513184, 
374, 3023817064, -132.4468994140625, -2.7013068199157715, 20.262996673583984, 0.5439090728759766, -7.10004997253418, -6.851500034332275, 0.6325435042381287, 1.4581928253173828, -4.808137893676758, 
375, 3023825397, -132.466552734375, -2.739316463470459, 20.2679500579834, 0.5250492691993713, -7.333940505981445, -6.906276702880859, -0.5975545048713684, 1.605948567390442, -4.364922046661377, 
376, 3023833730, -132.4860076904297, -2.775174617767334, 20.274213790893555, 0.5355553030967712, -7.3251118659973145, -6.922219276428223, -0.6549816727638245, 1.3143048286437988, -4.2868242263793945, 
377, 3023842063, -132.50799560546875, -2.8085572719573975, 20.27935028076172, 0.5404117107391357, -7.223362922668457, -6.899597644805908, -0.8741242289543152, 1.2153699398040771, -3.9687082767486572, 
378, 3023850396, -132.53907775878906, -2.840439558029175, 20.287866592407227, 0.5582265853881836, -7.278990745544434, -6.9342427253723145, -2.0343339443206787, 0.7972815036773682, -4.115439414978027, 
379, 3023858729, -132.57630920410156, -2.8687357902526855, 20.288911819458008, 0.5453232526779175, -7.1890411376953125, -6.976520538330078, -2.7283518314361572, 1.1680988073349, -3.182363986968994, 
380, 3023867062, -132.624755859375, -2.894974708557129, 20.288951873779297, 0.47489431500434875, -7.294055938720703, -6.846312522888184, -4.167409896850586, 1.0903853178024292, -2.9280402660369873, 
381, 3023875395, -132.66795349121094, -2.921032428741455, 20.2922306060791, 0.461667001247406, -7.577515125274658, -6.86754035949707, -3.4288241863250732, 0.7929527163505554, -3.161975145339966, 
382, 3023883728, -132.69969177246094, -2.945159912109375, 20.300020217895508, 0.4632759988307953, -7.567646026611328, -6.847968578338623, -2.1128926277160645, 0.24073538184165955, -3.366197109222412, 
383, 3023892061, -132.72679138183594, -2.9691567420959473, 20.309839248657227, 0.44318413734436035, -7.547532558441162, -6.885150909423828, -1.4579107761383057, 0.05108758434653282, -3.5132479667663574, 
384, 3023900394, -132.7464141845703, -2.9889910221099854, 20.317811965942383, 0.4462239146232605, -7.495016574859619, -6.928656101226807, -0.6606423854827881, -0.1244339644908905, -3.0006821155548096, 
385, 3023908727, -132.7706298828125, -3.011258840560913, 20.322696685791016, 0.49094101786613464, -7.333264350891113, -6.936492443084717, -1.1388728618621826, 0.3499673008918762, -2.9583287239074707, 
386, 3023917060, -132.79774475097656, -3.0312037467956543, 20.32535743713379, 0.4359554946422577, -7.56308126449585, -6.940783977508545, -1.591015338897705, 0.355397492647171, -2.5779316425323486, 
387, 3023925393, -132.81817626953125, -3.0511927604675293, 20.330110549926758, 0.4146139323711395, -7.536584854125977, -6.942545413970947, -0.689816951751709, 0.17472751438617706, -2.747511148452759, 
388, 3023933726, -132.83599853515625, -3.0701849460601807, 20.336271286010742, 0.4108324348926544, -7.450718402862549, -6.902182102203369, -0.45256513357162476, -0.02905934676527977, -2.778183698654175, 
389, 3023942059, -132.8489990234375, -3.0875048637390137, 20.346176147460938, 0.39218348264694214, -7.531130313873291, -6.901917934417725, 0.23613762855529785, -0.49011558294296265, -2.9306142330169678, 
390, 3023950392, -132.85733032226562, -3.1044178009033203, 20.35807991027832, 0.3710363805294037, -7.440485000610352, -6.914134979248047, 0.7237301468849182, -0.7027393579483032, -3.0626556873321533, 
391, 3023958725, -132.86924743652344, -3.1187093257904053, 20.36961555480957, 0.36778420209884644, -7.449769496917725, -6.948126316070557, 0.3759016692638397, -0.8807966709136963, -2.7991490364074707, 
392, 3023967058, -132.88291931152344, -3.1285951137542725, 20.37996482849121, 0.32827258110046387, -7.509847164154053, -6.900151252746582, 0.07291091978549957, -1.1385016441345215, -2.3183188438415527, 
393, 3023975391, -132.8978729248047, -3.132598876953125, 20.395360946655273, 0.29544225335121155, -7.566779136657715, -6.806273460388184, 0.03858784958720207, -2.0572328567504883, -2.209765672683716, 
394, 3023983724, -132.9027862548828, -3.135646343231201, 20.416362762451172, 0.27160027623176575, -7.628350257873535, -6.894018173217773, 1.1932902336120605, -2.632028818130493, -2.58479642868042, 
395, 3023992057, -132.89776611328125, -3.134307384490967, 20.438812255859375, 0.30946338176727295, -7.499831199645996, -6.911337852478027, 2.479304313659668, -3.1119885444641113, -2.318126678466797, 
396, 3024000390, -132.8951416015625, -3.1293888092041016, 20.459138870239258, 0.3180024325847626, -7.347254276275635, -6.946768283843994, 2.09533429145813, -3.2224247455596924, -1.8307007551193237, 
397, 3024008723, -132.9002227783203, -3.123579263687134, 20.47283935546875, 0.3184039294719696, -7.46622896194458, -6.971131801605225, 1.208876609802246, -2.7065277099609375, -1.2125521898269653, 
398, 3024017056, -132.9005889892578, -3.1174309253692627, 20.48187255859375, 0.3491186797618866, -7.555927753448486, -6.948915481567383, 1.6600714921951294, -2.333200693130493, -0.8011876344680786, 
399, 3024025389, -132.89474487304688, -3.1087160110473633, 20.48811912536621, 0.3866392970085144, -7.550506591796875, -6.979339122772217, 2.470839023590088, -2.287709951400757, -0.35104313492774963, 
400, 3024033722, -132.8836212158203, -3.0988409519195557, 20.493358612060547, 0.458183228969574, -7.520206451416016, -7.0104756355285645, 3.0135276317596436, -2.3034369945526123, -0.16426408290863037, 
401, 3024042055, -132.875732421875, -3.0880465507507324, 20.4979305267334, 0.4252108931541443, -7.539278984069824, -6.967987537384033, 2.7042744159698486, -2.3108012676239014, -0.032696571201086044, 
402, 3024050388, -132.86941528320312, -3.0813450813293457, 20.505447387695312, 0.42785680294036865, -7.5940470695495605, -6.916186332702637, 2.4530115127563477, -2.2442171573638916, -0.6282404065132141, 
403, 3024058721, -132.859619140625, -3.0782289505004883, 20.5152587890625, 0.3978463113307953, -7.557013034820557, -6.884157657623291, 2.9662179946899414, -2.143373727798462, -1.1355302333831787, 
404, 3024067054, -132.84613037109375, -3.076132297515869, 20.526891708374023, 0.3794976770877838, -7.534326553344727, -6.89857292175293, 3.338021755218506, -2.230654239654541, -1.3686583042144775, 
405, 3024075387, -132.826171875, -3.073859453201294, 20.538774490356445, 0.37178605794906616, -7.497867107391357, -6.894136428833008, 4.196930885314941, -2.25443696975708, -1.3779946565628052, 
406, 3024083720, -132.80209350585938, -3.070514678955078, 20.548683166503906, 0.3848656117916107, -7.321889400482178, -6.882864952087402, 4.60176420211792, -2.1804373264312744, -1.1171393394470215, 
407, 3024092053, -132.78515625, -3.067251443862915, 20.554861068725586, 0.38477128744125366, -7.333808422088623, -6.897403717041016, 3.794402837753296, -1.8352086544036865, -0.8296707272529602, 
408, 3024100386, -132.771728515625, -3.063652992248535, 20.55939483642578, 0.3860835134983063, -7.273277282714844, -6.8568243980407715, 3.285012722015381, -1.7299084663391113, -0.6560829877853394, 
409, 3024108719, -132.76429748535156, -3.0602269172668457, 20.558866500854492, 0.40864279866218567, -7.322234630584717, -6.913997650146484, 2.614598512649536, -1.2553151845932007, -0.2665032744407654, 
410, 3024117052, -132.75828552246094, -3.0531792640686035, 20.55345916748047, 0.4282466471195221, -7.3842291831970215, -6.870182991027832, 2.334071397781372, -1.1357736587524414, 0.45652249455451965, 
411, 3024125385, -132.7523651123047, -3.0431907176971436, 20.547271728515625, 0.49449583888053894, -7.370594501495361, -6.872824668884277, 2.395033597946167, -1.293531894683838, 0.7682990431785583, 
412, 3024133718, -132.75270080566406, -3.0311641693115234, 20.54166603088379, 0.4801771938800812, -7.403972148895264, -6.8352556228637695, 1.570383071899414, -1.523086428642273, 0.9115850329399109, 
413, 3024142051, -132.7521209716797, -3.0171003341674805, 20.540407180786133, 0.4948389530181885, -7.5428924560546875, -6.930363655090332, 1.7845821380615234, -2.0599992275238037, 0.7260482907295227, 
414, 3024150384, -132.74176025390625, -3.003263235092163, 20.540685653686523, 0.5642766952514648, -7.410780906677246, -7.009426116943359, 2.8905534744262695, -2.188915491104126, 0.592982292175293, 
415, 3024158717, -132.74484252929688, -2.9888010025024414, 20.542551040649414, 0.6230780482292175, -7.228425979614258, -7.043787479400635, 1.3667371273040771, -2.3648853302001953, 0.5073283314704895, 
416, 3024167050, -132.76470947265625, -2.9728643894195557, 20.5428409576416, 0.6538966298103333, -7.266504287719727, -7.157218933105469, -0.7356535792350769, -2.3603131771087646, 0.7760601043701172, 
417, 3024175383, -132.80006408691406, -2.9517295360565186, 20.53639793395996, 0.6566288471221924, -7.213955402374268, -7.357327938079834, -2.5571587085723877, -2.1791694164276123, 1.771864652633667, 
418, 3024183716, -132.85623168945312, -2.927565336227417, 20.515838623046875, 0.6940162777900696, -7.128153324127197, -7.391656875610352, -5.220616817474365, -1.2008466720581055, 3.197309970855713, 
419, 3024192049, -132.938232421875, -2.8989181518554688, 20.48036003112793, 0.6536802053451538, -7.270322322845459, -7.489743232727051, -8.330467224121094, -0.24996934831142426, 4.800044536590576, 
420, 3024200382, -133.02943420410156, -2.8626489639282227, 20.436307907104492, 0.5740801692008972, -7.565616607666016, -7.397157192230225, -9.563998222351074, -0.141083225607872, 6.181164264678955, 
421, 3024208715, -133.12347412109375, -2.813534736633301, 20.3923397064209, 0.5188336372375488, -7.798164367675781, -7.360628604888916, -9.813517570495605, -1.2012947797775269, 7.290553569793701, 
422, 3024217048, -133.21444702148438, -2.7434511184692383, 20.35379981994629, 0.36717426776885986, -8.126486778259277, -7.3019914627075195, -9.496415138244629, -3.4225106239318848, 8.690706253051758, 
423, 3024225381, -133.29452514648438, -2.6511147022247314, 20.32994842529297, 0.23042410612106323, -8.268950462341309, -7.270445346832275, -8.011174201965332, -6.535384654998779, 9.418177604675293, 
424, 3024233714, -133.36227416992188, -2.5317301750183105, 20.320737838745117, 0.22297996282577515, -8.224709510803223, -7.352453231811523, -6.533846855163574, -10.064513206481934, 10.57494068145752, 
425, 3024242047, -133.42564392089844, -2.392238140106201, 20.321060180664062, 0.1622397005558014, -8.14120864868164, -7.577066421508789, -5.876612186431885, -12.553656578063965, 11.526025772094727, 
426, 3024250380, -133.49612426757812, -2.23488187789917, 20.326927185058594, 0.15031643211841583, -7.86991024017334, -7.746387481689453, -6.780871391296387, -14.53640365600586, 12.618062973022461, 
427, 3024258713, -133.59109497070312, -2.054669141769409, 20.327777862548828, 0.12949728965759277, -7.794381141662598, -7.96455717086792, -9.666264533996582, -15.994161605834961, 14.990711212158203, 
428, 3024267046, -133.7022705078125, -1.8574962615966797, 20.321643829345703, 0.06767494976520538, -7.813025951385498, -8.054527282714844, -11.720362663269043, -16.83714485168457, 17.025165557861328, 
429, 3024275379, -133.83477783203125, -1.639938473701477, 20.30613136291504, -0.0688658133149147, -7.909209728240967, -8.035820960998535, -14.228846549987793, -17.738664627075195, 19.523990631103516, 
430, 3024283712, -133.9819793701172, -1.4008764028549194, 20.284936904907227, -0.27030012011528015, -8.197493553161621, -7.967880725860596, -16.086742401123047, -19.10138511657715, 21.828702926635742, 
431, 3024292045, -134.12789916992188, -1.136263132095337, 20.264394760131836, -0.40294867753982544, -8.57927131652832, -7.83487606048584, -15.835469245910645, -21.329702377319336, 23.914884567260742, 
432, 3024300378, -134.24964904785156, -0.8422071933746338, 20.247310638427734, -0.49715298414230347, -8.764890670776367, -7.763474941253662, -12.999905586242676, -24.16388511657715, 26.127946853637695, 
433, 3024308711, -134.34886169433594, -0.5196309089660645, 20.23208236694336, -0.588706374168396, -8.652497291564941, -7.815619468688965, -10.19875717163086, -26.74588394165039, 28.35793113708496, 
434, 3024317044, -134.43701171875, -0.1713133454322815, 20.208507537841797, -0.6640022993087769, -8.559368133544922, -7.95311975479126, -8.950575828552246, -28.257158279418945, 31.244075775146484, 
435, 3024325377, -134.52023315429688, 0.19604434072971344, 20.167383193969727, -0.6754794120788574, -8.53874683380127, -8.075384140014648, -8.258428573608398, -28.380290985107422, 34.28413772583008, 
436, 3024333710, -134.59869384765625, 0.5749908089637756, 20.10417366027832, -0.7464417219161987, -8.424542427062988, -8.028594970703125, -7.719235897064209, -27.540462493896484, 37.121524810791016, 
437, 3024342043, -134.68528747558594, 0.9728831052780151, 20.02733039855957, -0.8979672789573669, -8.618728637695312, -7.847402095794678, -8.540969848632812, -28.002117156982422, 39.81923294067383, 
438, 3024350376, -134.7574462890625, 1.3834311962127686, 19.948741912841797, -1.0477886199951172, -8.925736427307129, -7.732050895690918, -6.823583126068115, -29.006303787231445, 41.03752899169922, 
439, 3024358709, -134.78973388671875, 1.809350609779358, 19.87806510925293, -1.074720859527588, -8.628239631652832, -7.835153102874756, -1.9179474115371704, -30.987741470336914, 41.617027282714844, 
440, 3024367042, -134.81710815429688, 2.2464218139648438, 19.80232048034668, -0.9762776494026184, -7.97117805480957, -7.839413642883301, -1.3155887126922607, -31.55206298828125, 43.01268005371094, 
441, 3024375375, -134.86151123046875, 2.692274808883667, 19.7159481048584, -0.8656870722770691, -7.784006595611572, -7.925379753112793, -3.1711275577545166, -31.3868465423584, 44.60135269165039, 
442, 3024383708, -134.9054412841797, 3.1426799297332764, 19.624107360839844, -0.853328287601471, -7.771075248718262, -7.81524658203125, -3.0638296604156494, -31.379884719848633, 45.461029052734375, 
443, 3024392041, -134.95114135742188, 3.6003668308258057, 19.537363052368164, -0.8996371030807495, -7.748251438140869, -7.787300109863281, -3.157475471496582, -32.43342208862305, 45.577545166015625, 
444, 3024400374, -134.99156188964844, 4.059366226196289, 19.4642276763916, -0.9105327129364014, -7.61214017868042, -7.7825822830200195, -2.6186270713806152, -33.7706413269043, 44.55458450317383, 
445, 3024408707, -135.0399932861328, 4.523832321166992, 19.395578384399414, -0.9821757078170776, -7.368293762207031, -7.690339088439941, -3.481701612472534, -34.61832809448242, 44.56383514404297, 
446, 3024417040, -135.10391235351562, 4.990977764129639, 19.337505340576172, -1.0595117807388306, -7.327281951904297, -7.707551956176758, -5.446946144104004, -35.821441650390625, 43.90473937988281, 
447, 3024425373, -135.1840057373047, 5.459956169128418, 19.28380012512207, -1.1516172885894775, -7.1255412101745605, -7.631022930145264, -7.31026029586792, -36.370079040527344, 43.596885681152344, 
448, 3024433706, -135.28392028808594, 5.927162170410156, 19.229106903076172, -1.2696356773376465, -6.9459028244018555, -7.637581825256348, -9.690969467163086, -36.24470520019531, 43.51731491088867, 
449, 3024442039, -135.4020233154297, 6.390822887420654, 19.16926383972168, -1.287559986114502, -6.971321105957031, -7.6346635818481445, -11.68779468536377, -35.56306838989258, 43.535762786865234, 
450, 3024450372, -135.54234313964844, 6.84398889541626, 19.101415634155273, -1.438999891281128, -7.053288459777832, -7.384586811065674, -14.255182266235352, -34.134422302246094, 43.29738998413086, 
451, 3024458705, -135.6992645263672, 7.297914505004883, 19.03136444091797, -1.7092398405075073, -7.303885459899902, -7.15565824508667, -16.07588768005371, -34.1002197265625, 43.410362243652344, 
452, 3024467038, -135.8459014892578, 7.756567001342773, 18.9593563079834, -1.809743881225586, -7.576313018798828, -7.043177127838135, -14.819464683532715, -34.50144577026367, 43.926063537597656, 
453, 3024475371, -135.96365356445312, 8.216235160827637, 18.89987564086914, -1.8121370077133179, -7.642689228057861, -7.037951946258545, -11.421674728393555, -35.69916915893555, 42.806793212890625, 
454, 3024483704, -136.05181884765625, 8.67441463470459, 18.84127426147461, -1.822904348373413, -7.48264217376709, -6.9867682456970215, -7.901371479034424, -35.763736724853516, 42.59042739868164, 
455, 3024492037, -136.11941528320312, 9.141005516052246, 18.7745304107666, -1.96278715133667, -7.293503761291504, -6.874938011169434, -5.156672477722168, -35.84498977661133, 43.88115692138672, 
456, 3024500370, -136.1679229736328, 9.61337661743164, 18.69402313232422, -1.9520502090454102, -7.261748313903809, -6.860506534576416, -2.600902795791626, -35.30891418457031, 45.546146392822266, 
457, 3024508703, -136.20388793945312, 10.094745635986328, 18.601688385009766, -1.9307167530059814, -7.435168266296387, -6.810036659240723, -0.7116809487342834, -35.12179946899414, 47.212867736816406, 
458, 3024517036, -136.21728515625, 10.573212623596191, 18.520183563232422, -1.916172742843628, -7.208310127258301, -6.743654727935791, 1.7936935424804688, -35.82786178588867, 46.0766716003418, 
459, 3024525369, -136.23080444335938, 11.049112319946289, 18.447402954101562, -1.930543065071106, -6.836270332336426, -6.810081481933594, 1.7195141315460205, -36.29663848876953, 45.04499053955078, 
460, 3024533702, -136.2496337890625, 11.51547908782959, 18.368436813354492, -1.935831904411316, -6.911566257476807, -6.871095180511475, 1.241089940071106, -35.03080368041992, 44.81783676147461, 
461, 3024542035, -136.25198364257812, 11.971977233886719, 18.283348083496094, -1.969843864440918, -7.140056133270264, -6.846063613891602, 3.4960451126098633, -33.655982971191406, 44.444175720214844, 
462, 3024550368, -136.2268829345703, 12.417795181274414, 18.204254150390625, -1.9412134885787964, -7.04945182800293, -6.739129543304443, 6.664188861846924, -33.26091384887695, 43.099693298339844, 
463, 3024558701, -136.16632080078125, 12.854684829711914, 18.136260986328125, -1.9681119918823242, -7.422796249389648, -6.760728359222412, 10.749950408935547, -33.32307815551758, 41.37779235839844, 
464, 3024567034, -136.0440216064453, 13.274513244628906, 18.092853546142578, -1.9932317733764648, -7.049309253692627, -6.769204616546631, 17.499523162841797, -33.82514572143555, 37.984127044677734, 
465, 3024575367, -135.90023803710938, 13.677770614624023, 18.065366744995117, -1.972242832183838, -6.725261688232422, -6.757293224334717, 19.717103958129883, -33.5629997253418, 35.28462600708008, 
466, 3024583700, -135.75831604003906, 14.064753532409668, 18.051305770874023, -1.8876217603683472, -6.457578182220459, -6.744656085968018, 19.079893112182617, -33.20626449584961, 32.93017578125, 
467, 3024592033, -135.63458251953125, 14.445448875427246, 18.04527473449707, -1.837104082107544, -6.5940728187561035, -6.603515148162842, 16.717151641845703, -33.20369338989258, 31.756275177001953, 
468, 3024600366, -135.5062713623047, 14.829052925109863, 18.053232192993164, -1.7663652896881104, -6.888172626495361, -6.625179767608643, 16.802961349487305, -34.55802536010742, 30.962255477905273, 
469, 3024608699, -135.36363220214844, 15.210067749023438, 18.078428268432617, -1.7482550144195557, -6.535144805908203, -6.6099958419799805, 18.024906158447266, -35.62957000732422, 29.350749969482422, 
470, 3024617032, -135.23927307128906, 15.581181526184082, 18.114307403564453, -1.7106505632400513, -6.293097019195557, -6.567990779876709, 15.423809051513672, -35.61376953125, 27.77132797241211, 
471, 3024625365, -135.1336212158203, 15.938536643981934, 18.15276527404785, -1.7435156106948853, -6.599814414978027, -6.516081809997559, 13.115702629089355, -34.56098937988281, 26.4254207611084, 
472, 3024633698, -135.02426147460938, 16.282814025878906, 18.198902130126953, -1.8586851358413696, -6.490257263183594, -6.5064473152160645, 13.23183822631836, -34.04819107055664, 24.80357551574707, 
473, 3024642031, -134.917724609375, 16.60801887512207, 18.255245208740234, -1.8594304323196411, -6.168694019317627, -6.533930778503418, 12.557769775390625, -33.1837043762207, 22.380765914916992, 
474, 3024650364, -134.81146240234375, 16.916807174682617, 18.316204071044922, -1.9119876623153687, -6.342714309692383, -6.412164688110352, 12.290583610534668, -32.14296340942383, 20.72044563293457, 
475, 3024658697, -134.67849731445312, 17.21875762939453, 18.39389419555664, -2.0748414993286133, -6.6198344230651855, -6.303405284881592, 14.907365798950195, -32.855865478515625, 18.823993682861328, 
476, 3024667030, -134.51063537597656, 17.511423110961914, 18.491254806518555, -2.1676857471466064, -6.237412452697754, -6.323261737823486, 18.303586959838867, -33.63668441772461, 16.577159881591797, 
477, 3024675363, -134.3303680419922, 17.796939849853516, 18.593379974365234, -2.1717796325683594, -5.977004528045654, -6.388094902038574, 19.601503372192383, -33.3470573425293, 15.662001609802246, 
478, 3024683696, -134.1545867919922, 18.069095611572266, 18.693384170532227, -2.18963623046875, -5.670065402984619, -6.390998840332031, 19.04574966430664, -32.003482818603516, 14.827052116394043, 
479, 3024692029, -133.99310302734375, 18.330425262451172, 18.779951095581055, -2.2095160484313965, -5.54425048828125, -6.385570049285889, 17.824979782104492, -29.932321548461914, 15.034537315368652, 
480, 3024700362, -133.84976196289062, 18.579792022705078, 18.853090286254883, -2.390767812728882, -5.707961559295654, -6.224727630615234, 16.06989097595215, -27.792016983032227, 15.175594329833984, 
481, 3024708695, -133.7054443359375, 18.821331024169922, 18.931961059570312, -2.674222707748413, -5.760788440704346, -6.055685043334961, 15.974910736083984, -27.55900001525879, 14.097027778625488, 
482, 3024717028, -133.5632781982422, 19.05321502685547, 19.022563934326172, -2.7500224113464355, -5.896574020385742, -6.011580944061279, 15.180482864379883, -27.682125091552734, 12.439090728759766, 
483, 3024725361, -133.4086456298828, 19.272296905517578, 19.12468719482422, -2.836207628250122, -5.790311336517334, -6.081869125366211, 16.226898193359375, -27.529918670654297, 10.479649543762207, 
484, 3024733694, -133.2720489501953, 19.480106353759766, 19.223970413208008, -2.749772071838379, -5.3352556228637695, -6.0986175537109375, 14.088494300842285, -26.326717376708984, 9.817496299743652, 
485, 3024742027, -133.16476440429688, 19.67717742919922, 19.302316665649414, -2.777081251144409, -5.257567882537842, -6.166388034820557, 11.419921875, -23.688316345214844, 10.538331031799316, 
486, 3024750360, -133.07736206054688, 19.863452911376953, 19.360618591308594, -2.931474447250366, -5.368808746337891, -5.983969688415527, 9.769492149353027, -21.12281608581543, 11.211010932922363, 
487, 3024758693, -133.0025634765625, 20.041275024414062, 19.40749740600586, -3.018660545349121, -5.761930465698242, -5.991713047027588, 8.76107120513916, -19.46917152404785, 11.357306480407715, 
488, 3024767026, -132.91708374023438, 20.20884132385254, 19.4410457611084, -2.9506258964538574, -5.907357692718506, -6.0763702392578125, 10.518285751342773, -17.506864547729492, 11.532943725585938, 
489, 3024775359, -132.83901977539062, 20.360599517822266, 19.458003997802734, -2.796083927154541, -5.674511432647705, -6.112386226654053, 10.369364738464355, -14.83194351196289, 11.414196014404297, 
490, 3024783692, -132.78961181640625, 20.489810943603516, 19.456472396850586, -2.9642651081085205, -5.929317951202393, -6.136003494262695, 7.639523983001709, -11.449552536010742, 10.887076377868652, 
491, 3024792025, -132.739013671875, 20.598085403442383, 19.437963485717773, -3.072765588760376, -6.149174213409424, -6.1808013916015625, 8.566670417785645, -8.338510513305664, 10.319528579711914, 
492, 3024800358, -132.6975860595703, 20.68614959716797, 19.40669822692871, -3.0887539386749268, -6.194576740264893, -6.202278137207031, 7.941169738769531, -5.627345561981201, 9.542340278625488, 
493, 3024808691, -132.67196655273438, 20.753631591796875, 19.36867904663086, -3.1300899982452393, -6.370513916015625, -6.2004876136779785, 6.403815269470215, -3.3974850177764893, 8.211770057678223, 
494, 3024817024, -132.6527862548828, 20.805744171142578, 19.330610275268555, -3.188004970550537, -6.246866226196289, -6.148744106292725, 5.566498756408691, -2.1343064308166504, 6.887681007385254, 
495, 3024825357, -132.64779663085938, 20.847328186035156, 19.303497314453125, -3.191465377807617, -5.9537763595581055, -6.085152626037598, 3.47143292427063, -2.1926040649414062, 5.097732067108154, 
496, 3024833690, -132.66749572753906, 20.87871742248535, 19.284812927246094, -3.2747802734375, -6.170098304748535, -6.119703769683838, 0.08095378428697586, -2.048959493637085, 3.5866715908050537, 
497, 3024842023, -132.70318603515625, 20.895254135131836, 19.273927688598633, -3.4188387393951416, -6.461002349853516, -6.10171365737915, -2.098151683807373, -1.4966527223587036, 1.6522207260131836, 
498, 3024850356, -132.74160766601562, 20.89716911315918, 19.270877838134766, -3.5256433486938477, -6.494007587432861, -5.968117713928223, -2.834996461868286, -0.9407724738121033, -0.2023908942937851, 
499, 3024858689, -132.78887939453125, 20.886873245239258, 19.272127151489258, -3.6298987865448, -6.5369343757629395, -5.93357515335083, -4.007078170776367, -0.31327491998672485, -1.6348670721054077, 
500, 3024867022, -132.8404083251953, 20.870676040649414, 19.277881622314453, -3.7551746368408203, -6.503093242645264, -5.900759220123291, -4.784559726715088, -0.18921233713626862, -2.4696476459503174, 
501, 3024875355, -132.90135192871094, 20.84579849243164, 19.28348159790039, -3.7779130935668945, -6.342803478240967, -5.934530735015869, -5.831028938293457, 0.5233628153800964, -3.248755931854248, 
502, 3024883688, -132.96124267578125, 20.80861473083496, 19.28281021118164, -3.781466245651245, -6.213811874389648, -6.0850348472595215, -5.513617515563965, 2.0576040744781494, -3.819671392440796, 
503, 3024892021, -133.04063415527344, 20.76268196105957, 19.276987075805664, -3.7891740798950195, -6.079272747039795, -6.038356781005859, -7.563487529754639, 3.190560817718506, -4.222673416137695, 
504, 3024900354, -133.14462280273438, 20.705495834350586, 19.274234771728516, -3.8304717540740967, -6.069114685058594, -6.002923488616943, -10.71475601196289, 3.878021001815796, -5.405641555786133, 
505, 3024908687, -133.26486206054688, 20.641071319580078, 19.282482147216797, -3.7816262245178223, -6.347213268280029, -6.019221305847168, -13.060765266418457, 3.5739548206329346, -6.908557415008545, 
506, 3024917020, -133.38047790527344, 20.5728759765625, 19.306041717529297, -3.7937300205230713, -6.560957431793213, -6.085681915283203, -13.224031448364258, 2.6522011756896973, -8.37451171875, 
507, 3024925353, -133.4838409423828, 20.502838134765625, 19.351566314697266, -3.782229423522949, -6.541501522064209, -6.067676067352295, -12.600017547607422, 1.0236475467681885, -10.262051582336426, 
508, 3024933686, -133.57675170898438, 20.43851089477539, 19.411535263061523, -3.73079514503479, -6.747428894042969, -6.216029167175293, -12.023900032043457, -0.6081972718238831, -10.844594955444336, 
509, 3024942019, -133.64743041992188, 20.375587463378906, 19.488677978515625, -3.6930973529815674, -6.525102615356445, -6.278097152709961, -9.988567352294922, -2.109498977661133, -12.094825744628906, 
510, 3024950352, -133.73387145996094, 20.31492805480957, 19.564353942871094, -3.670543670654297, -6.1430206298828125, -6.411253452301025, -11.885763168334961, -2.16546630859375, -11.751313209533691, 
511, 3024958685, -133.84312438964844, 20.25055503845215, 19.635704040527344, -3.655691146850586, -6.279978275299072, -6.540561199188232, -14.360087394714355, -1.4883155822753906, -11.781167984008789, 
512, 3024967018, -133.9606170654297, 20.186565399169922, 19.697641372680664, -3.650620937347412, -6.386405944824219, -6.598939895629883, -15.02357292175293, -0.7377414703369141, -10.975165367126465, 
513, 3024975351, -134.07859802246094, 20.128522872924805, 19.746286392211914, -3.67136549949646, -6.365479946136475, -6.611971378326416, -14.44863510131836, -0.13378319144248962, -9.463027954101562, 
514, 3024983684, -134.19580078125, 20.072593688964844, 19.783615112304688, -3.6510157585144043, -6.310721397399902, -6.606470584869385, -13.957173347473145, 0.6172903776168823, -8.351317405700684, 
515, 3024992017, -134.31861877441406, 20.019126892089844, 19.815532684326172, -3.6575140953063965, -6.2961883544921875, -6.7139458656311035, -14.333012580871582, 0.8687453866004944, -7.755659580230713, 
516, 3025000350, -134.45663452148438, 19.966230392456055, 19.837779998779297, -3.596982002258301, -6.367341995239258, -6.757811546325684, -15.829679489135742, 1.6100729703903198, -6.898402214050293, 
517, 3025008683, -134.60089111328125, 19.914594650268555, 19.853445053100586, -3.6367266178131104, -6.788722515106201, -6.732198238372803, -16.227209091186523, 2.055555582046509, -6.307967662811279, 
518, 3025017016, -134.71243286132812, 19.865478515625, 19.876707077026367, -3.6530191898345947, -6.974332809448242, -6.786801338195801, -12.691650390625, 1.2375904321670532, -6.642386436462402, 
519, 3025025349, -134.80740356445312, 19.820737838745117, 19.90885353088379, -3.5918381214141846, -6.694247245788574, -6.8278985023498535, -10.979671478271484, 0.17262715101242065, -7.021554946899414, 
520, 3025033682, -134.90391540527344, 19.781614303588867, 19.944032669067383, -3.6047818660736084, -6.888709545135498, -6.956898212432861, -11.367430686950684, -0.5406012535095215, -6.733380317687988, 
521, 3025042015, -134.980712890625, 19.74442481994629, 19.977949142456055, -3.6951749324798584, -6.937036037445068, -7.139845371246338, -8.86661148071289, -0.5896013379096985, -6.517453193664551, 
522, 3025050348, -135.0494842529297, 19.704809188842773, 20.007909774780273, -3.7161049842834473, -6.698208332061768, -7.071296215057373, -7.819948673248291, -0.06741666048765182, -6.359450817108154, 
523, 3025058681, -135.12142944335938, 19.664522171020508, 20.02587890625, -3.6996665000915527, -6.780542373657227, -7.151467323303223, -7.635040760040283, 0.9619811177253723, -5.505319595336914, 
524, 3025067014, -135.1865234375, 19.619800567626953, 20.026885986328125, -3.727576971054077, -6.830253601074219, -7.099835395812988, -6.207815647125244, 2.686152458190918, -4.470453262329102, 
525, 3025075347, -135.25396728515625, 19.574386596679688, 20.006454467773438, -3.734968423843384, -6.609536170959473, -7.073808670043945, -5.542946815490723, 4.4671101570129395, -2.8538360595703125, 
526, 3025083680, -135.33621215820312, 19.531362533569336, 19.97247314453125, -3.771182060241699, -6.971512317657471, -6.949829578399658, -6.859376907348633, 5.335906505584717, -1.5064115524291992, 
527, 3025092013, -135.3868408203125, 19.49568748474121, 19.956649780273438, -3.6401731967926025, -7.143667697906494, -6.938803195953369, -3.7136285305023193, 3.274895191192627, -2.39129376411438, 
528, 3025100346, -135.41258239746094, 19.4591007232666, 19.954486846923828, -3.5608434677124023, -7.121022701263428, -7.0559563636779785, -1.3562994003295898, 2.261775255203247, -3.5144269466400146, 
529, 3025108679, -135.42164611816406, 19.42151641845703, 19.955904006958008, -3.467106342315674, -6.8352952003479, -7.22214412689209, 0.5822628736495972, 2.0732674598693848, -3.935922145843506, 
530, 3025117012, -135.45079040527344, 19.379636764526367, 19.95023536682129, -3.3826866149902344, -6.823862075805664, -7.2493977546691895, -1.6248517036437988, 2.994842052459717, -3.6736834049224854, 
531, 3025125345, -135.49542236328125, 19.33293914794922, 19.938213348388672, -3.408855438232422, -7.335585117340088, -7.213013648986816, -3.152677297592163, 3.9234609603881836, -3.6158082485198975, 
532, 3025133678, -135.52734375, 19.278213500976562, 19.92643165588379, -3.481050729751587, -7.585451602935791, -7.172853946685791, -1.7192529439926147, 4.582271099090576, -4.253217697143555, 
533, 3025142011, -135.54061889648438, 19.21756935119629, 19.916011810302734, -3.4466986656188965, -7.415100574493408, -7.276591777801514, 0.5489898324012756, 4.995185852050781, -4.910850524902344, 
534, 3025150344, -135.54534912109375, 19.142120361328125, 19.903928756713867, -3.354478597640991, -7.400723934173584, -7.327138423919678, 1.5534520149230957, 6.384731769561768, -5.969768524169922, 
535, 3025158677, -135.5507049560547, 19.051881790161133, 19.888948440551758, -3.258277416229248, -7.400148391723633, -7.30402135848999, 1.6668336391448975, 7.89201545715332, -7.023295879364014, 
536, 3025167010, -135.5660400390625, 18.94614601135254, 19.865476608276367, -3.291628837585449, -7.588279724121094, -7.171119689941406, 0.7228721976280212, 9.88710880279541, -7.587577819824219, 
537, 3025175343, -135.5647735595703, 18.83036994934082, 19.849557876586914, -3.3458921909332275, -7.875923156738281, -7.227951526641846, 2.4917147159576416, 10.157570838928223, -9.087215423583984, 
538, 3025183676, -135.53280639648438, 18.705244064331055, 19.84881591796875, -3.1047515869140625, -7.796449184417725, -7.228695869445801, 5.509379863739014, 9.742106437683105, -11.061637878417969, 
539, 3025192009, -135.47775268554688, 18.56838035583496, 19.86150550842285, -2.9288201332092285, -7.698568820953369, -7.330655097961426, 7.838099002838135, 9.67371940612793, -13.188645362854004, 
540, 3025200342, -135.4066619873047, 18.423383712768555, 19.8753719329834, -2.8473799228668213, -7.335887908935547, -7.38042688369751, 9.651267051696777, 10.253560066223145, -13.938514709472656, 
541, 3025208675, -135.3380889892578, 18.269424438476562, 19.890953063964844, -2.832520008087158, -7.320279598236084, -7.345629692077637, 9.353950500488281, 10.87185001373291, -14.88576889038086, 
542, 3025217008, -135.26136779785156, 18.106285095214844, 19.904882431030273, -2.8222408294677734, -7.235173225402832, -7.296207904815674, 10.33254337310791, 11.76235580444336, -15.503098487854004, 
543, 3025225341, -135.18482971191406, 17.935222625732422, 19.914779663085938, -2.8203158378601074, -7.3342061042785645, -7.240741729736328, 10.530285835266113, 12.742460250854492, -15.899889945983887, 
544, 3025233674, -135.089111328125, 17.763925552368164, 19.932090759277344, -2.738187789916992, -7.43821382522583, -7.127086639404297, 12.496334075927734, 12.139297485351562, -16.507204055786133, 
545, 3025242007, -134.98143005371094, 17.587406158447266, 19.962095260620117, -2.729241371154785, -7.642720699310303, -6.951272487640381, 13.54037094116211, 11.525245666503906, -18.032968521118164, 
546, 3025250340, -134.82366943359375, 17.413930892944336, 20.002605438232422, -2.681515693664551, -7.345540523529053, -7.000765323638916, 19.11769676208496, 10.374706268310547, -18.623611450195312, 
547, 3025258673, -134.65476989746094, 17.24686050415039, 20.050048828125, -2.602231502532959, -7.205526351928711, -7.079838752746582, 20.283618927001953, 9.211859703063965, -18.699365615844727, 
548, 3025267006, -134.4811248779297, 17.086551666259766, 20.1002197265625, -2.664750337600708, -7.3031134605407715, -6.945804119110107, 20.70591163635254, 8.36478328704834, -18.34756851196289, 
549, 3025275339, -134.2986297607422, 16.935733795166016, 20.15285301208496, -2.846914052963257, -7.283642768859863, -6.827714443206787, 21.759984970092773, 7.304582595825195, -17.78845977783203, 
550, 3025283672, -134.11636352539062, 16.804279327392578, 20.210494995117188, -2.635896682739258, -6.923789978027344, -6.808563709259033, 21.513139724731445, 5.217686176300049, -16.52897834777832, 
551, 3025292005, -133.9462127685547, 16.691600799560547, 20.27028465270996, -2.501091480255127, -6.955260276794434, -6.92270565032959, 20.05918312072754, 3.4147636890411377, -15.120461463928223, 
552, 3025300338, -133.7738494873047, 16.59893035888672, 20.321073532104492, -2.4321048259735107, -6.677631855010986, -6.879411697387695, 20.585542678833008, 2.459287643432617, -12.66916561126709, 
553, 3025308671, -133.62490844726562, 16.53070831298828, 20.36211395263672, -2.6430306434631348, -6.573751926422119, -6.82574987411499, 18.177724838256836, 1.1975041627883911, -9.804953575134277, 
554, 3025317004, -133.49835205078125, 16.488937377929688, 20.392547607421875, -2.53609561920166, -6.680782794952393, -6.588657855987549, 15.792845726013184, -0.12034852057695389, -6.65036678314209, 
555, 3025325337, -133.3744659423828, 16.466480255126953, 20.41739845275879, -2.6541755199432373, -6.966899394989014, -6.660906791687012, 15.731127738952637, -1.2710555791854858, -4.545477867126465, 
556, 3025333670, -133.2589874267578, 16.46270179748535, 20.430683135986328, -2.6802053451538086, -6.767099380493164, -6.597540378570557, 15.052733421325684, -1.8375911712646484, -1.982695460319519, 
557, 3025342003, -133.1639404296875, 16.4752254486084, 20.444194793701172, -2.9461982250213623, -8.066320419311523, -5.8735432624816895, 12.654932975769043, -3.210514545440674, -0.591330349445343, 
558, 3025350336, -132.95794677734375, 16.504404067993164, 20.48805809020996, -2.4071767330169678, -6.269582748413086, -6.761639595031738, 24.873157501220703, -7.116215229034424, -1.4925041198730469, 
559, 3025358669, -132.87413024902344, 16.53339195251465, 20.4920711517334, -2.1273269653320312, -6.749057769775391, -6.900705337524414, 11.626891136169434, -3.752779960632324, 1.6151823997497559, 
560, 3025367002, -132.8040771484375, 16.568195343017578, 20.461755752563477, -2.527927875518799, -6.760128498077393, -6.577828407287598, 11.088146209716797, -1.3194788694381714, 4.827950477600098, 
561, 3025375335, -132.74868774414062, 16.604515075683594, 20.412065505981445, -2.465397834777832, -7.045304298400879, -6.6262054443359375, 10.05833911895752, 0.18294969201087952, 6.461895942687988, 
562, 3025383668, -132.68939208984375, 16.630475997924805, 20.354129791259766, -2.323928117752075, -6.912262916564941, -6.627561092376709, 10.751985549926758, 1.7437148094177246, 6.2065863609313965, 
563, 3025392001, -132.64820861816406, 16.643884658813477, 20.29068374633789, -2.279019832611084, -6.236119747161865, -6.6391377449035645, 8.834684371948242, 3.2215538024902344, 5.513003349304199, 
564, 3025400334, -132.6579132080078, 16.655195236206055, 20.220308303833008, -2.3288800716400146, -6.295048713684082, -6.429131507873535, 2.900031328201294, 3.993297815322876, 5.874664306640625, 
565, 3025408667, -132.6940155029297, 16.669689178466797, 20.154621124267578, -2.373770236968994, -6.6689348220825195, -6.2686076164245605, -0.364208847284317, 3.3169026374816895, 5.784168243408203, 
566, 3025417000, -132.73532104492188, 16.681364059448242, 20.101850509643555, -2.4517264366149902, -6.627384662628174, -6.112783432006836, -1.4927208423614502, 2.4691994190216064, 4.539239406585693, 
567, 3025425333, -132.78623962402344, 16.697349548339844, 20.062419891357422, -2.4549970626831055, -6.40344762802124, -6.04873514175415, -3.037182569503784, 0.9664122462272644, 3.874652862548828, 
568, 3025433666, -132.8497772216797, 16.71673011779785, 20.02918815612793, -2.552358865737915, -6.680769443511963, -6.077454566955566, -4.83129358291626, 0.18424320220947266, 3.695570707321167, 
569, 3025441999, -132.90936279296875, 16.735801696777344, 20.002140045166016, -2.6464662551879883, -6.590634346008301, -5.997694969177246, -4.502816200256348, -0.3388635218143463, 3.1840286254882812, 
570, 3025450332, -132.97999572753906, 16.754150390625, 19.97635269165039, -2.684460401535034, -6.619717121124268, -6.024627208709717, -5.939915180206299, -0.3680509328842163, 3.0250027179718018, 
571, 3025458665, -133.0504913330078, 16.771509170532227, 19.954179763793945, -2.7702510356903076, -6.71891975402832, -5.869204998016357, -5.980103969573975, -0.6183788180351257, 2.650343418121338, 
572, 3025466998, -133.11654663085938, 16.793628692626953, 19.939044952392578, -2.81730580329895, -6.636977195739746, -5.781674861907959, -5.756927013397217, -1.580346941947937, 2.524116277694702, 
573, 3025475331, -133.1713409423828, 16.818790435791016, 19.928516387939453, -2.858242988586426, -6.79814338684082, -5.840012550354004, -4.498064994812012, -2.24147629737854, 2.4186370372772217, 
574, 3025483664, -133.2196044921875, 16.847440719604492, 19.919837951660156, -2.8406994342803955, -6.56013298034668, -5.85963249206543, -3.8448245525360107, -2.6644434928894043, 2.582913875579834, 
575, 3025491997, -133.26461791992188, 16.878582000732422, 19.91299057006836, -2.8345305919647217, -6.661015033721924, -5.892197132110596, -3.4548733234405518, -3.0437140464782715, 2.652034044265747, 
576, 3025500330, -133.29412841796875, 16.910924911499023, 19.910383224487305, -2.8329553604125977, -6.640200614929199, -5.894922733306885, -1.8035366535186768, -3.479552745819092, 2.4266157150268555, 
577, 3025508663, -133.30844116210938, 16.945730209350586, 19.91231346130371, -2.802893877029419, -6.568063735961914, -5.900242328643799, -0.0811074823141098, -4.083766937255859, 2.2761833667755127, 
578, 3025516996, -133.3047332763672, 16.982194900512695, 19.918752670288086, -2.7522456645965576, -6.594028472900391, -5.915435791015625, 1.8630256652832031, -4.577404499053955, 2.0709619522094727, 
579, 3025525329, -133.29281616210938, 17.02001190185547, 19.931835174560547, -2.70416522026062, -6.539076805114746, -5.942386150360107, 2.676034450531006, -5.259140968322754, 1.6641697883605957, 
580, 3025533662, -133.2769317626953, 17.056385040283203, 19.948205947875977, -2.5953662395477295, -6.561578273773193, -6.020073890686035, 2.9770150184631348, -5.397906303405762, 1.2860909700393677, 
581, 3025541995, -133.26048278808594, 17.088125228881836, 19.963956832885742, -2.497169017791748, -6.7019944190979, -6.124744892120361, 3.1198649406433105, -4.979394435882568, 0.9240847826004028, 
582, 3025550328, -133.248779296875, 17.11261558532715, 19.984045028686523, -2.344235420227051, -6.747551918029785, -6.284148216247559, 2.340026617050171, -4.728694915771484, -0.04367227479815483, 
583, 3025558661, -133.23854064941406, 17.13422393798828, 20.0039119720459, -2.194744825363159, -6.743935585021973, -6.381007671356201, 2.228605031967163, -4.491456508636475, -0.28060397505760193, 
584, 3025566994, -133.22921752929688, 17.14637565612793, 20.02436637878418, -2.1844422817230225, -6.727743625640869, -6.456234931945801, 2.039930582046509, -3.7448270320892334, -1.1494388580322266, 
585, 3025575327, -133.21881103515625, 17.150123596191406, 20.04142189025879, -2.173093557357788, -6.74293327331543, -6.501059532165527, 2.344918966293335, -2.7917468547821045, -1.6176412105560303, 
586, 3025583660, -133.21376037597656, 17.14439582824707, 20.05548095703125, -2.144235849380493, -6.664981365203857, -6.580016613006592, 1.753844976425171, -1.741972804069519, -2.2103803157806396, 
587, 3025591993, -133.21754455566406, 17.126922607421875, 20.066150665283203, -2.0734708309173584, -6.615574836730957, -6.58616304397583, 0.8694496154785156, -0.5148589015007019, -2.968318223953247, 
588, 3025600326, -133.2299041748047, 17.100751876831055, 20.077150344848633, -2.020777463912964, -6.784655570983887, -6.670843601226807, -0.22575104236602783, 0.19323377311229706, -3.7567501068115234, 
589, 3025608659, -133.24720764160156, 17.061019897460938, 20.082763671875, -1.9051172733306885, -6.907311916351318, -6.780296325683594, -0.5738229155540466, 1.7301136255264282, -4.5141119956970215, 
590, 3025616992, -133.27108764648438, 17.0091609954834, 20.08248519897461, -1.8040640354156494, -6.793327331542969, -6.78702974319458, -1.2070708274841309, 3.252739191055298, -5.114701747894287, 
591, 3025625325, -133.3124542236328, 16.944791793823242, 20.076824188232422, -1.7991114854812622, -6.8777313232421875, -6.819560527801514, -3.0625410079956055, 4.698945045471191, -5.771502494812012, 
592, 3025633658, -133.35540771484375, 16.866283416748047, 20.068098068237305, -1.7654556035995483, -7.057833671569824, -6.9514007568359375, -3.207324981689453, 6.15643310546875, -6.769675254821777, 
593, 3025641991, -133.4032440185547, 16.777782440185547, 20.05536651611328, -1.8194531202316284, -6.867771625518799, -6.945867538452148, -3.5924477577209473, 7.282064437866211, -7.302978515625, 
594, 3025650324, -133.46792602539062, 16.686120986938477, 20.03725242614746, -1.8499003648757935, -6.807667255401611, -6.868784427642822, -5.489208221435547, 8.037248611450195, -7.162176609039307, 
595, 3025658657, -133.53399658203125, 16.59341049194336, 20.0162410736084, -1.9763838052749634, -6.940746307373047, -6.847871780395508, -5.504499435424805, 8.327969551086426, -6.991124153137207, 
596, 3025666990, -133.59300231933594, 16.502836227416992, 19.995033264160156, -2.1289877891540527, -6.797679424285889, -6.707486152648926, -4.708024501800537, 8.222310066223145, -6.79850435256958, 
597, 3025675323, -133.6522674560547, 16.420467376708984, 19.975915908813477, -2.2530081272125244, -6.820843696594238, -6.604401588439941, -4.754040718078613, 7.324314117431641, -6.216920852661133, 
598, 3025683656, -133.70155334472656, 16.345478057861328, 19.961698532104492, -2.3662400245666504, -6.840963840484619, -6.571937561035156, -3.7880258560180664, 6.36004114151001, -5.98554801940918, 
599, 3025691989, -133.7480926513672, 16.27804183959961, 19.948684692382812, -2.4165234565734863, -6.790177822113037, -6.580752849578857, -3.4406449794769287, 5.585875988006592, -5.386969089508057, 
600, 3025700322, -133.7997283935547, 16.21877670288086, 19.936574935913086, -2.421771287918091, -6.854715347290039, -6.5843377113342285, -4.143833637237549, 4.891627788543701, -4.7750444412231445, 
601, 3025708655, -133.8566131591797, 16.17034339904785, 19.922958374023438, -2.3449862003326416, -6.966115474700928, -6.62395715713501, -4.66166353225708, 4.064838409423828, -3.679741382598877, 
602, 3025716988, -133.9124755859375, 16.131189346313477, 19.9110050201416, -2.42164945602417, -7.138734817504883, -6.643740177154541, -4.658051013946533, 3.2138054370880127, -3.0355687141418457, 
