PacketCounter,SampleTimeFine,Euler_X,Euler_Y,Euler_Z,Acc_X,Acc_Y,Acc_Z,Gyr_X,Gyr_Y,Gyr_Z,
0, 3077464918, -129.90078735351562, -7.590221881866455, 21.118633270263672, 0, 0, 0, 0, 0, 0, 
1, 3077473251, -129.91297912597656, -7.605311393737793, 21.120454788208008, 1.1127731800079346, -7.742771148681641, -6.409971237182617, 0.27464863657951355, 0.10708030313253403, -2.3038978576660156, 
2, 3077481584, -129.9276885986328, -7.6176581382751465, 21.120193481445312, 1.172765851020813, -7.7717509269714355, -6.437564373016357, -0.12276902049779892, -0.06272926181554794, -1.7233000993728638, 
3, 3077489917, -129.93959045410156, -7.6275482177734375, 21.123991012573242, 1.1868826150894165, -7.76753044128418, -6.424851894378662, 0.34275686740875244, -0.46991872787475586, -1.9742683172225952, 
4, 3077498250, -129.95306396484375, -7.6396484375, 21.131149291992188, 1.2189868688583374, -7.740267276763916, -6.389070510864258, 0.14355498552322388, -0.7583350539207458, -2.2670648097991943, 
5, 3077506583, -129.96788024902344, -7.651838779449463, 21.13907241821289, 1.254052996635437, -7.594040870666504, -6.468161106109619, 0.05866941064596176, -0.6686596274375916, -2.5021779537200928, 
6, 3077514916, -129.98968505859375, -7.666769504547119, 21.14129638671875, 1.24350905418396, -7.519941329956055, -6.490420341491699, -0.935790479183197, -0.08888139575719833, -2.150315046310425, 
7, 3077523249, -130.01670837402344, -7.682017803192139, 21.139070510864258, 1.237131953239441, -7.589203357696533, -6.489683628082275, -1.5712027549743652, 0.49149876832962036, -2.0055692195892334, 
8, 3077531582, -130.03773498535156, -7.703648567199707, 21.135604858398438, 1.2424347400665283, -7.616276264190674, -6.455699443817139, -0.9311414361000061, 0.9464972019195557, -2.3309340476989746, 
9, 3077539915, -130.05172729492188, -7.726269721984863, 21.128862380981445, 1.2352129220962524, -7.641678333282471, -6.450984954833984, -0.0820424035191536, 1.47342050075531, -2.3350448608398438, 
10, 3077548248, -130.05484008789062, -7.753802299499512, 21.119361877441406, 1.2524327039718628, -7.470127105712891, -6.472894668579102, 1.1205074787139893, 1.9535081386566162, -2.410581350326538, 
11, 3077556581, -130.06346130371094, -7.7769694328308105, 21.103851318359375, 1.2110427618026733, -7.514869213104248, -6.455169200897217, 0.42397964000701904, 2.313771963119507, -1.7139508724212646, 
12, 3077564914, -130.07113647460938, -7.800620079040527, 21.09048080444336, 1.1456491947174072, -7.702271461486816, -6.391742706298828, 0.5066624283790588, 2.0066065788269043, -1.7552924156188965, 
13, 3077573247, -130.0693359375, -7.818905353546143, 21.080989837646484, 1.146727442741394, -7.833504676818848, -6.393195152282715, 1.768957495689392, 1.3873053789138794, -1.725118637084961, 
14, 3077581580, -130.05145263671875, -7.839596271514893, 21.0740966796875, 1.1447906494140625, -7.763260364532471, -6.375919342041016, 3.680163621902466, 1.1872326135635376, -1.981107473373413, 
15, 3077589913, -130.03070068359375, -7.856326103210449, 21.071096420288086, 1.1727474927902222, -7.720984935760498, -6.413748264312744, 4.150493144989014, 0.6772019863128662, -2.0803370475769043, 
16, 3077598246, -130.00730895996094, -7.8737006187438965, 21.069852828979492, 1.222713828086853, -7.712963581085205, -6.46464204788208, 4.4328508377075195, 0.416282594203949, -2.1083974838256836, 
17, 3077606579, -129.9824981689453, -7.894289970397949, 21.067163467407227, 1.2360460758209229, -7.628464698791504, -6.504159927368164, 4.638520240783691, 0.9459463953971863, -2.461912155151367, 
18, 3077614912, -129.95945739746094, -7.916791915893555, 21.058696746826172, 1.2731815576553345, -7.630307197570801, -6.555516242980957, 4.27300500869751, 1.4680671691894531, -2.0294158458709717, 
19, 3077623245, -129.93980407714844, -7.943549156188965, 21.048538208007812, 1.2981278896331787, -7.473378658294678, -6.521872043609619, 3.8984992504119873, 2.100200653076172, -2.4601190090179443, 
20, 3077631578, -129.93971252441406, -7.966711521148682, 21.035520553588867, 1.292085886001587, -7.554728984832764, -6.469974994659424, 1.4397761821746826, 1.9329012632369995, -1.7448034286499023, 
21, 3077639911, -129.9385223388672, -7.98526668548584, 21.023984909057617, 1.2459931373596191, -7.751683712005615, -6.454709053039551, 1.6601866483688354, 1.5921552181243896, -1.6005696058273315, 
22, 3077648244, -129.92970275878906, -8.003039360046387, 21.01798439025879, 1.2359068393707275, -7.728203296661377, -6.41840934753418, 2.6039559841156006, 0.8795544505119324, -1.7846461534500122, 
23, 3077656577, -129.92288208007812, -8.016034126281738, 21.015647888183594, 1.270139217376709, -7.540830135345459, -6.451603889465332, 2.486335515975952, 0.32457077503204346, -1.789026141166687, 
24, 3077664910, -129.92581176757812, -8.028800964355469, 21.011409759521484, 1.2844284772872925, -7.460475444793701, -6.504748821258545, 1.224757432937622, 0.3329722285270691, -1.4591405391693115, 
25, 3077673243, -129.9496307373047, -8.038515090942383, 21.006776809692383, 1.279204249382019, -7.39892578125, -6.515117645263672, -1.2295089960098267, 0.28082168102264404, -1.3126015663146973, 
26, 3077681576, -129.98959350585938, -8.0469331741333, 20.99939727783203, 1.314761996269226, -7.481020450592041, -6.528784275054932, -3.27536940574646, 0.28489434719085693, -0.8186309337615967, 
27, 3077689909, -130.03564453125, -8.053397178649902, 20.990312576293945, 1.3257241249084473, -7.532961845397949, -6.566879749298096, -3.966005802154541, 0.4374014735221863, -0.6714771389961243, 
28, 3077698242, -130.08522033691406, -8.058401107788086, 20.98025131225586, 1.341325283050537, -7.620536804199219, -6.564933776855469, -4.4712982177734375, 0.2625587284564972, -0.2974068820476532, 
29, 3077706575, -130.1381378173828, -8.057451248168945, 20.970006942749023, 1.3465690612792969, -7.639919757843018, -6.577990531921387, -4.815117835998535, -0.030250415205955505, 0.09998516738414764, 
30, 3077714908, -130.18954467773438, -8.056317329406738, 20.96282386779785, 1.3144475221633911, -7.6590704917907715, -6.505330562591553, -4.642170429229736, -0.472992479801178, 0.04816757142543793, 
31, 3077723241, -130.2438201904297, -8.0542631149292, 20.96057891845703, 1.3125916719436646, -7.631836414337158, -6.565965175628662, -4.840501308441162, -0.8452696800231934, -0.4110828638076782, 
32, 3077731574, -130.30096435546875, -8.055318832397461, 20.96430778503418, 1.2305833101272583, -7.65624475479126, -6.551095485687256, -5.150023460388184, -1.292904019355774, -0.9884020090103149, 
33, 3077739907, -130.36119079589844, -8.056243896484375, 20.96704864501953, 1.273241639137268, -7.5205159187316895, -6.64669942855835, -5.469766139984131, -1.0658595561981201, -1.0656033754348755, 
34, 3077748240, -130.430419921875, -8.058138847351074, 20.96737289428711, 1.3035911321640015, -7.530979156494141, -6.606973171234131, -6.65363073348999, -0.9172202348709106, -0.8042613863945007, 
35, 3077756573, -130.50416564941406, -8.056758880615234, 20.963998794555664, 1.292434573173523, -7.660855770111084, -6.567635536193848, -7.197497844696045, -0.6928138732910156, -0.38421356678009033, 
36, 3077764906, -130.58050537109375, -8.049901008605957, 20.95758819580078, 1.2301831245422363, -7.7567033767700195, -6.591373920440674, -7.621696472167969, -0.9936275482177734, 0.5130147933959961, 
37, 3077773239, -130.6485137939453, -8.03619384765625, 20.951017379760742, 1.1636736392974854, -7.848299980163574, -6.556533336639404, -6.561418533325195, -1.3677232265472412, 0.9900029301643372, 
38, 3077781572, -130.70755004882812, -8.019330024719238, 20.946678161621094, 1.1544318199157715, -7.853972434997559, -6.527170658111572, -5.512145519256592, -1.964829683303833, 1.263319730758667, 
39, 3077789905, -130.7568359375, -7.9979567527771, 20.946561813354492, 1.1406126022338867, -7.752677917480469, -6.556687355041504, -4.203526496887207, -2.5505118370056152, 1.1854650974273682, 
40, 3077798238, -130.7964324951172, -7.976288795471191, 20.948238372802734, 1.1313608884811401, -7.859835147857666, -6.599079132080078, -3.0773966312408447, -2.886775493621826, 1.2318782806396484, 
41, 3077806571, -130.82366943359375, -7.9500412940979, 20.950485229492188, 1.1510436534881592, -7.777975559234619, -6.590850353240967, -1.5234063863754272, -3.14857816696167, 1.4406596422195435, 
42, 3077814904, -130.83863830566406, -7.922449111938477, 20.95170021057129, 1.1739344596862793, -7.7976531982421875, -6.598447799682617, -0.1281736046075821, -3.3117408752441406, 1.8031010627746582, 
43, 3077823237, -130.83953857421875, -7.8938188552856445, 20.950109481811523, 1.1590901613235474, -7.889747142791748, -6.641565799713135, 1.5737512111663818, -2.9905128479003906, 1.9553519487380981, 
44, 3077831570, -130.82254028320312, -7.869441986083984, 20.944625854492188, 1.1608843803405762, -7.737989902496338, -6.687466621398926, 3.5957138538360596, -2.45648193359375, 2.031273126602173, 
45, 3077839903, -130.80780029296875, -7.848884582519531, 20.934162139892578, 1.1309220790863037, -7.7235212326049805, -6.6577582359313965, 3.306246757507324, -1.5576783418655396, 1.9113212823867798, 
46, 3077848236, -130.79611206054688, -7.835084438323975, 20.922245025634766, 1.1007864475250244, -7.851855278015137, -6.558213233947754, 2.8530287742614746, -1.0476478338241577, 1.5718048810958862, 
47, 3077856569, -130.78219604492188, -7.820321559906006, 20.916584014892578, 1.0646065473556519, -7.907255172729492, -6.502160549163818, 3.2836294174194336, -1.5339595079421997, 1.0113908052444458, 
48, 3077864902, -130.75811767578125, -7.80919885635376, 20.9155216217041, 1.068023681640625, -7.953440189361572, -6.476382255554199, 4.519311904907227, -1.8145893812179565, 0.4857867658138275, 
49, 3077873235, -130.7216033935547, -7.798269748687744, 20.919403076171875, 1.0441311597824097, -7.843874454498291, -6.468976020812988, 6.149016857147217, -2.0912230014801025, -0.07937851548194885, 
50, 3077881568, -130.6759796142578, -7.790070056915283, 20.92154312133789, 1.074288010597229, -7.617642879486084, -6.519254684448242, 7.157680511474609, -1.872349500656128, -0.027151091024279594, 
51, 3077889901, -130.62985229492188, -7.780845642089844, 20.919944763183594, 1.107403039932251, -7.507074356079102, -6.514993667602539, 7.211727142333984, -1.4626498222351074, 0.19199150800704956, 
52, 3077898234, -130.58782958984375, -7.773181438446045, 20.915857315063477, 1.1141221523284912, -7.469875812530518, -6.524726390838623, 6.623110771179199, -1.2686985731124878, 0.40671563148498535, 
53, 3077906567, -130.5542755126953, -7.763081073760986, 20.91360855102539, 1.1207423210144043, -7.502349376678467, -6.464859962463379, 5.692878723144531, -1.4681566953659058, 0.32236793637275696, 
54, 3077914900, -130.52366638183594, -7.75428581237793, 20.913524627685547, 1.095731496810913, -7.52706241607666, -6.463392734527588, 5.317784786224365, -1.7160770893096924, 0.20213475823402405, 
55, 3077923233, -130.48963928222656, -7.742770195007324, 20.911911010742188, 1.0904217958450317, -7.552093029022217, -6.46682071685791, 5.757375240325928, -1.6384145021438599, 0.40013277530670166, 
56, 3077931566, -130.45359802246094, -7.732120037078857, 20.909412384033203, 1.1114503145217896, -7.58241081237793, -6.485311031341553, 5.93260383605957, -1.6420519351959229, 0.5572249293327332, 
57, 3077939899, -130.41656494140625, -7.719836711883545, 20.907175064086914, 1.1418993473052979, -7.582054615020752, -6.489935398101807, 6.109955310821533, -1.6383376121520996, 0.522056519985199, 
58, 3077948232, -130.38108825683594, -7.710542678833008, 20.90479278564453, 1.1814044713974, -7.511408805847168, -6.546517372131348, 5.865596771240234, -1.5437957048416138, 0.4247737526893616, 
59, 3077956565, -130.35360717773438, -7.701032638549805, 20.900474548339844, 1.186901330947876, -7.4465460777282715, -6.527612209320068, 4.930599689483643, -1.2339402437210083, 0.4281547963619232, 
60, 3077964898, -130.3328857421875, -7.696732044219971, 20.892513275146484, 1.1693824529647827, -7.528844833374023, -6.539358139038086, 4.003722667694092, -0.6498587131500244, 0.3982628881931305, 
61, 3077973231, -130.3154296875, -7.692348480224609, 20.88324546813965, 1.180039644241333, -7.581136226654053, -6.522429466247559, 3.647479772567749, -0.3862370252609253, 0.34068211913108826, 
62, 3077981564, -130.3007354736328, -7.693596839904785, 20.873811721801758, 1.1710766553878784, -7.6566619873046875, -6.522234916687012, 3.2599620819091797, -0.0843476802110672, 0.0026254591066390276, 
63, 3077989897, -130.28887939453125, -7.694389820098877, 20.86638069152832, 1.1563650369644165, -7.6561689376831055, -6.510135173797607, 3.0074570178985596, -0.1502787172794342, -0.27443090081214905, 
64, 3077998230, -130.28282165527344, -7.691695690155029, 20.861665725708008, 1.1625568866729736, -7.72178316116333, -6.473152160644531, 2.2962522506713867, -0.8170941472053528, 0.0029840583447366953, 
65, 3078006563, -130.28079223632812, -7.682706832885742, 20.861419677734375, 1.1743577718734741, -7.7631964683532715, -6.451699256896973, 1.944901466369629, -1.5618023872375488, 0.06632807105779648, 
66, 3078014896, -130.2852325439453, -7.671063423156738, 20.86851692199707, 1.1691336631774902, -7.786320686340332, -6.50570011138916, 1.2266786098480225, -2.5854241847991943, -0.08793366700410843, 
67, 3078023229, -130.28648376464844, -7.658576011657715, 20.88150978088379, 1.2002164125442505, -7.55311918258667, -6.503565311431885, 1.7583277225494385, -3.034031867980957, -0.6284452676773071, 
68, 3078031562, -130.30621337890625, -7.643948078155518, 20.896793365478516, 1.2402063608169556, -7.369553089141846, -6.488331317901611, -0.47588691115379333, -3.5586884021759033, -0.44458630681037903, 
69, 3078039895, -130.32984924316406, -7.624014377593994, 20.907777786254883, 1.2159457206726074, -7.476246356964111, -6.594314098358154, -0.9596118330955505, -3.43123197555542, 0.20349231362342834, 
70, 3078048228, -130.35189819335938, -7.607544422149658, 20.919898986816406, 1.231839895248413, -7.451238632202148, -6.594442367553711, -0.8065154552459717, -3.415581703186035, -0.0340157113969326, 
71, 3078056561, -130.37301635742188, -7.585414409637451, 20.92255401611328, 1.2528576850891113, -7.339056015014648, -6.721428871154785, -0.7900967001914978, -2.846689224243164, 1.0472252368927002, 
72, 3078064894, -130.3958282470703, -7.563732147216797, 20.915197372436523, 1.2372814416885376, -7.312239170074463, -6.683093547821045, -1.2084283828735352, -2.0566437244415283, 1.9419817924499512, 
73, 3078073227, -130.42138671875, -7.538156986236572, 20.90080451965332, 1.1990694999694824, -7.482019424438477, -6.5985188484191895, -1.5891839265823364, -1.5723299980163574, 2.6731913089752197, 
74, 3078081560, -130.4391632080078, -7.5116424560546875, 20.884666442871094, 1.163917064666748, -7.60146427154541, -6.547372817993164, -0.7405074834823608, -1.638619303703308, 3.060913562774658, 
75, 3078089893, -130.44204711914062, -7.485868453979492, 20.875871658325195, 1.1336485147476196, -7.741115570068359, -6.4770097732543945, 1.220198154449463, -2.097677707672119, 2.2616732120513916, 
76, 3078098226, -130.43643188476562, -7.462851047515869, 20.8723201751709, 1.0966293811798096, -7.810451030731201, -6.520284652709961, 2.267256498336792, -2.5071213245391846, 1.7695465087890625, 
77, 3078106559, -130.42657470703125, -7.439332008361816, 20.875179290771484, 1.1214267015457153, -7.83536434173584, -6.478999614715576, 2.928821563720703, -2.9776039123535156, 1.154907464981079, 
78, 3078114892, -130.4159393310547, -7.417621612548828, 20.88286590576172, 1.1389950513839722, -7.831014633178711, -6.500471591949463, 3.0432143211364746, -3.4226510524749756, 0.7828863263130188, 
79, 3078123225, -130.4072265625, -7.395190238952637, 20.89244270324707, 1.1544710397720337, -7.821422576904297, -6.512723445892334, 2.897110939025879, -3.500415563583374, 0.5377324819564819, 
80, 3078131558, -130.39767456054688, -7.3782477378845215, 20.90774154663086, 1.146322250366211, -7.86442756652832, -6.5388031005859375, 3.0276410579681396, -3.7418556213378906, -0.23846851289272308, 
81, 3078139891, -130.38685607910156, -7.363487243652344, 20.925975799560547, 1.1683615446090698, -7.910817623138428, -6.631829261779785, 3.2827844619750977, -3.6866822242736816, -0.828646183013916, 
82, 3078148224, -130.37005615234375, -7.351412773132324, 20.946680068969727, 1.1921398639678955, -7.785123348236084, -6.684350967407227, 3.979748010635376, -3.854071855545044, -1.0997728109359741, 
83, 3078156557, -130.355224609375, -7.332362651824951, 20.96233367919922, 1.240719199180603, -7.662952423095703, -6.671546936035156, 3.72114634513855, -3.789600372314453, -0.2382892370223999, 
84, 3078164890, -130.33395385742188, -7.306004047393799, 20.967939376831055, 1.2313870191574097, -7.6662678718566895, -6.720391750335693, 4.28442907333374, -3.59321665763855, 1.3716551065444946, 
85, 3078173223, -130.30850219726562, -7.2728800773620605, 20.965499877929688, 1.2100220918655396, -7.704996109008789, -6.666408538818359, 4.721741199493408, -3.2376906871795654, 2.4472994804382324, 
86, 3078181556, -130.2789764404297, -7.237527370452881, 20.963167190551758, 1.1866002082824707, -7.756033897399902, -6.557045936584473, 5.154352188110352, -3.5686135292053223, 2.808626651763916, 
87, 3078189889, -130.24278259277344, -7.197823524475098, 20.966733932495117, 1.142983317375183, -7.797342777252197, -6.532318592071533, 6.098506927490234, -4.293099880218506, 2.5884854793548584, 
88, 3078198222, -130.19873046875, -7.158051490783691, 20.97602653503418, 1.0646848678588867, -7.953432083129883, -6.531330108642578, 7.069464206695557, -4.964961051940918, 2.3214051723480225, 
89, 3078206555, -130.1437530517578, -7.114820957183838, 20.989370346069336, 0.9882148504257202, -7.970752716064453, -6.482597827911377, 8.500622749328613, -5.450108051300049, 2.1680660247802734, 
90, 3078214888, -130.07785034179688, -7.0678863525390625, 21.002723693847656, 0.9958515763282776, -7.937784194946289, -6.49372673034668, 9.75117301940918, -5.883359909057617, 2.6759064197540283, 
91, 3078223221, -130.0014190673828, -7.015344142913818, 21.013364791870117, 0.9445880651473999, -8.033100128173828, -6.433331489562988, 11.029196739196777, -5.9141998291015625, 3.241725444793701, 
92, 3078231554, -129.91415405273438, -6.964134693145752, 21.028284072875977, 0.9388880133628845, -8.107166290283203, -6.487162113189697, 12.336854934692383, -6.346593379974365, 2.9611213207244873, 
93, 3078239887, -129.81163024902344, -6.908627033233643, 21.041156768798828, 0.9707650542259216, -7.805744647979736, -6.483915328979492, 14.188687324523926, -6.3358869552612305, 3.357988119125366, 
94, 3078248220, -129.71343994140625, -6.851348876953125, 21.045473098754883, 0.9200105667114258, -7.773615837097168, -6.432161808013916, 13.49280071258545, -5.830005645751953, 4.348030090332031, 
95, 3078256553, -129.62413024902344, -6.790603160858154, 21.046377182006836, 0.8464879989624023, -7.870090007781982, -6.4238057136535645, 12.424506187438965, -5.627319812774658, 4.767001628875732, 
96, 3078264886, -129.53427124023438, -6.72892427444458, 21.046972274780273, 0.8206084370613098, -7.864984512329102, -6.277921676635742, 12.440720558166504, -5.80866813659668, 5.052267074584961, 
97, 3078273219, -129.4527587890625, -6.667797565460205, 21.058320999145508, 0.8190572261810303, -7.999191761016846, -6.254237174987793, 11.636512756347656, -6.598690032958984, 4.02547025680542, 
98, 3078281552, -129.3612060546875, -6.612698554992676, 21.079360961914062, 0.7835054993629456, -7.950031757354736, -6.3187575340271, 12.925521850585938, -7.172524929046631, 2.908766031265259, 
99, 3078289885, -129.26687622070312, -6.5606865882873535, 21.107868194580078, 0.8305684328079224, -7.8476481437683105, -6.311610698699951, 13.404535293579102, -7.475515842437744, 1.8961838483810425, 
100, 3078298218, -129.17213439941406, -6.512685775756836, 21.137601852416992, 0.9639089107513428, -7.534456253051758, -6.444063186645508, 13.424154281616211, -7.42474889755249, 1.614427089691162, 
101, 3078306551, -129.0964813232422, -6.464286804199219, 21.1605167388916, 0.9641590714454651, -7.624149799346924, -6.449847221374512, 11.08134651184082, -6.676120758056641, 2.0021750926971436, 
102, 3078314884, -129.0238800048828, -6.422341823577881, 21.17659568786621, 0.9063898921012878, -7.590606212615967, -6.432460308074951, 10.574747085571289, -5.6981940269470215, 2.0927469730377197, 
103, 3078323217, -128.95750427246094, -6.378015995025635, 21.1849308013916, 0.9306617975234985, -7.67264986038208, -6.330786228179932, 9.769538879394531, -5.009555339813232, 2.72969651222229, 
104, 3078331550, -128.88522338867188, -6.338603496551514, 21.191242218017578, 0.9154725074768066, -7.867361068725586, -6.274295806884766, 10.405975341796875, -4.595475196838379, 2.5989866256713867, 
105, 3078339883, -128.80062866210938, -6.29656982421875, 21.202953338623047, 0.9096003174781799, -7.798618316650391, -6.236223220825195, 12.001155853271484, -5.14208459854126, 2.273942708969116, 
106, 3078348216, -128.7118377685547, -6.255670547485352, 21.216331481933594, 0.8887989521026611, -7.798320770263672, -6.213425636291504, 12.476837158203125, -5.354682445526123, 2.221433162689209, 
107, 3078356549, -128.61900329589844, -6.216723442077637, 21.23607635498047, 0.8973631262779236, -7.754213333129883, -6.262282848358154, 13.092012405395508, -5.6506028175354, 1.3964498043060303, 
108, 3078364882, -128.5292510986328, -6.182696342468262, 21.256017684936523, 0.9216345548629761, -7.57789421081543, -6.198051452636719, 12.676602363586426, -5.443410873413086, 1.102577805519104, 
109, 3078373215, -128.4511260986328, -6.149851322174072, 21.273212432861328, 0.9302765130996704, -7.630155563354492, -6.267630100250244, 11.289615631103516, -4.952000141143799, 1.026913046836853, 
110, 3078381548, -128.3817596435547, -6.122402191162109, 21.294103622436523, 1.0203535556793213, -7.6445512771606445, -6.26411771774292, 10.23725414276123, -5.036271572113037, 0.42492738366127014, 
111, 3078389881, -128.32455444335938, -6.092377185821533, 21.313304901123047, 1.000385046005249, -7.524637699127197, -6.256786346435547, 8.803010940551758, -4.926130294799805, 0.6227461695671082, 
112, 3078398214, -128.27572631835938, -6.066829681396484, 21.328414916992188, 1.03949773311615, -7.607013702392578, -6.277258396148682, 7.698986053466797, -4.3526530265808105, 0.6816588640213013, 
113, 3078406547, -128.23675537109375, -6.04321813583374, 21.341005325317383, 1.08683180809021, -7.654621601104736, -6.296098232269287, 6.53120756149292, -3.8294565677642822, 0.5119133591651917, 
114, 3078414880, -128.20037841796875, -6.026949405670166, 21.35259246826172, 1.1337029933929443, -7.599303245544434, -6.287396430969238, 6.157649040222168, -3.3314638137817383, 0.0715789794921875, 
115, 3078423213, -128.17080688476562, -6.010501861572266, 21.36211585998535, 1.1104761362075806, -7.538527965545654, -6.290615558624268, 5.3627119064331055, -3.0093913078308105, 0.06952985376119614, 
116, 3078431546, -128.14381408691406, -5.999490261077881, 21.36899757385254, 1.0951812267303467, -7.562948226928711, -6.312260627746582, 4.972478866577148, -2.4995648860931396, -0.0758693665266037, 
117, 3078439879, -128.1181182861328, -5.987749099731445, 21.371654510498047, 1.118119716644287, -7.595707893371582, -6.282373428344727, 4.81433629989624, -2.0155839920043945, 0.13397525250911713, 
118, 3078448212, -128.091552734375, -5.9824538230896, 21.3742618560791, 1.1581517457962036, -7.631753921508789, -6.301795959472656, 4.868151664733887, -1.6737620830535889, -0.2989693284034729, 
119, 3078456545, -128.06800842285156, -5.9778666496276855, 21.372270584106445, 1.1856611967086792, -7.558102607727051, -6.315101146697998, 4.497296333312988, -1.0518101453781128, -0.19795963168144226, 
120, 3078464878, -128.05081176757812, -5.980048179626465, 21.368745803833008, 1.1914647817611694, -7.549410343170166, -6.294555187225342, 3.666459560394287, -0.5435596108436584, -0.5537285208702087, 
121, 3078473211, -128.04232788085938, -5.983402252197266, 21.366676330566406, 1.1873738765716553, -7.591984272003174, -6.244478702545166, 2.6925299167633057, -0.4596218466758728, -0.9400424957275391, 
122, 3078481544, -128.0398406982422, -5.988094806671143, 21.366809844970703, 1.1314561367034912, -7.640667915344238, -6.1904473304748535, 1.948103427886963, -0.7015482783317566, -1.0588412284851074, 
123, 3078489877, -128.03802490234375, -5.994102478027344, 21.364032745361328, 1.0665695667266846, -7.611605167388916, -6.2542548179626465, 1.885297179222107, -0.1948474943637848, -1.1382966041564941, 
124, 3078498210, -128.04063415527344, -6.006388187408447, 21.358497619628906, 1.0079424381256104, -7.572234153747559, -6.25348424911499, 1.263025164604187, 0.3912446200847626, -1.3613965511322021, 
125, 3078506543, -128.05157470703125, -6.020633220672607, 21.351194381713867, 1.0547577142715454, -7.574906349182129, -6.247753143310547, 0.29747092723846436, 0.8382129669189453, -1.5797066688537598, 
126, 3078514876, -128.07508850097656, -6.039383888244629, 21.339406967163086, 1.0226218700408936, -7.5969343185424805, -6.226461887359619, -1.3239742517471313, 1.456386923789978, -1.5119826793670654, 
127, 3078523209, -128.1045684814453, -6.058432102203369, 21.324623107910156, 1.0042710304260254, -7.6754889488220215, -6.246698379516602, -2.018709182739258, 1.8967982530593872, -1.4813480377197266, 
128, 3078531542, -128.1372833251953, -6.080965042114258, 21.306976318359375, 0.9880245923995972, -7.780731678009033, -6.212784290313721, -2.504918336868286, 2.2884907722473145, -1.4350374937057495, 
129, 3078539875, -128.16766357421875, -6.098745822906494, 21.28856658935547, 0.9904359579086304, -7.826873779296875, -6.180826663970947, -2.1746997833251953, 2.141209125518799, -1.0897833108901978, 
130, 3078548208, -128.19805908203125, -6.117941379547119, 21.276508331298828, 0.9805741310119629, -7.738286972045898, -6.12398099899292, -2.155130624771118, 1.517861247062683, -1.5298101902008057, 
131, 3078556541, -128.23516845703125, -6.132978439331055, 21.271209716796875, 0.9901701211929321, -7.757898807525635, -6.173283100128174, -2.812647819519043, 0.7109615206718445, -1.7935599088668823, 
132, 3078564874, -128.2664337158203, -6.151299953460693, 21.26848030090332, 1.0115630626678467, -7.846090793609619, -6.212717533111572, -2.1414525508880615, 0.5805338621139526, -2.1343061923980713, 
133, 3078573207, -128.2921142578125, -6.171395301818848, 21.268997192382812, 0.9625274538993835, -7.685775279998779, -6.26743221282959, -1.3701566457748413, 0.5409597754478455, -2.6965389251708984, 
134, 3078581540, -128.32586669921875, -6.193439483642578, 21.266511917114258, 1.022170901298523, -7.600344657897949, -6.208089351654053, -2.4363620281219482, 0.8361510634422302, -2.4997828006744385, 
135, 3078589873, -128.36233520507812, -6.212327003479004, 21.259798049926758, 0.9841007590293884, -7.802652359008789, -6.244715690612793, -2.759037733078003, 1.1308302879333496, -2.047268867492676, 
136, 3078598206, -128.38897705078125, -6.234808921813965, 21.253175735473633, 0.9454118609428406, -7.900510311126709, -6.237426280975342, -1.6366726160049438, 1.2563397884368896, -2.232741355895996, 
137, 3078606539, -128.40875244140625, -6.256922245025635, 21.244932174682617, 0.975760817527771, -7.86536169052124, -6.192850589752197, -0.7759576439857483, 1.514403223991394, -2.234022378921509, 
138, 3078614872, -128.42636108398438, -6.281131744384766, 21.234634399414062, 0.9904745817184448, -7.890977382659912, -6.231627464294434, -0.5967860817909241, 1.7315350770950317, -2.121063709259033, 
139, 3078623205, -128.4384002685547, -6.305064678192139, 21.2216739654541, 0.9940269589424133, -7.928192615509033, -6.266025066375732, 0.09058474749326706, 2.092081069946289, -2.0540311336517334, 
140, 3078631538, -128.44720458984375, -6.333352088928223, 21.207416534423828, 1.005624771118164, -8.004582405090332, -6.2385478019714355, 0.40156713128089905, 2.4060347080230713, -2.209048271179199, 
141, 3078639871, -128.46177673339844, -6.358801364898682, 21.196155548095703, 0.9858947992324829, -8.036593437194824, -6.196484088897705, -0.19438642263412476, 2.045565366744995, -2.321366786956787, 
142, 3078648204, -128.47723388671875, -6.383615016937256, 21.19198989868164, 0.9771812558174133, -7.979995250701904, -6.090025901794434, -0.26374977827072144, 1.2042404413223267, -2.6292757987976074, 
143, 3078656537, -128.48988342285156, -6.404812812805176, 21.19406509399414, 0.9522860050201416, -7.991329193115234, -6.183328628540039, 0.21541573107242584, 0.4848262667655945, -2.909252166748047, 
144, 3078664870, -128.4925537109375, -6.4297685623168945, 21.197656631469727, 0.9461420774459839, -7.853358745574951, -6.195046901702881, 1.3737297058105469, 0.49283066391944885, -3.2182493209838867, 
145, 3078673203, -128.49404907226562, -6.455726623535156, 21.202590942382812, 0.9527379274368286, -7.883391380310059, -6.184833526611328, 1.590477466583252, 0.5728238821029663, -3.569394826889038, 
146, 3078681536, -128.48707580566406, -6.484135627746582, 21.210264205932617, 0.9614273905754089, -7.989509582519531, -6.190907955169678, 2.586897134780884, 0.368652880191803, -3.8455159664154053, 
147, 3078689869, -128.47023010253906, -6.511488437652588, 21.22142791748047, 0.9774512052536011, -7.820389747619629, -6.19293737411499, 3.875523567199707, 0.09529776126146317, -4.160366535186768, 
148, 3078698202, -128.44996643066406, -6.5386457443237305, 21.232845306396484, 1.0075111389160156, -7.86169958114624, -6.216115951538086, 4.235659599304199, -0.07653532922267914, -4.008089542388916, 
149, 3078706535, -128.43458557128906, -6.564058303833008, 21.248388290405273, 0.9954266548156738, -7.885706424713135, -6.24286413192749, 3.7550344467163086, -0.4607488811016083, -4.304446697235107, 
150, 3078714868, -128.42156982421875, -6.590022563934326, 21.26358413696289, 1.004045844078064, -7.833073139190674, -6.245447158813477, 3.4178481101989746, -0.5201227068901062, -4.17409610748291, 
151, 3078723201, -128.41366577148438, -6.610609531402588, 21.275300979614258, 1.0148142576217651, -7.86650276184082, -6.26449728012085, 2.8100481033325195, -0.46377134323120117, -3.5686779022216797, 
152, 3078731534, -128.4048614501953, -6.6323957443237305, 21.285608291625977, 1.031470537185669, -7.920939922332764, -6.262445449829102, 2.845344305038452, -0.3765036165714264, -3.4195003509521484, 
153, 3078739867, -128.39356994628906, -6.651017665863037, 21.29625701904297, 1.0403186082839966, -7.887211799621582, -6.244441986083984, 3.2052247524261475, -0.5114394426345825, -3.302827835083008, 
154, 3078748200, -128.38345336914062, -6.668833255767822, 21.301406860351562, 1.0479669570922852, -7.928919315338135, -6.288209438323975, 2.933328866958618, -0.1911846101284027, -2.6652889251708984, 
155, 3078756533, -128.3727569580078, -6.682961940765381, 21.303768157958984, 1.097525715827942, -7.915812969207764, -6.31035041809082, 3.0161657333374023, -0.07233460247516632, -2.2663986682891846, 
156, 3078764866, -128.35971069335938, -6.6947150230407715, 21.30158805847168, 1.1083831787109375, -7.936270236968994, -6.274580955505371, 3.1829147338867188, 0.04137980192899704, -1.5542463064193726, 
157, 3078773199, -128.34341430664062, -6.703702449798584, 21.297653198242188, 1.0917229652404785, -8.015413284301758, -6.255219459533691, 3.5994017124176025, 0.12928785383701324, -1.3168789148330688, 
158, 3078781532, -128.32427978515625, -6.710158824920654, 21.297300338745117, 1.0583815574645996, -7.991724014282227, -6.217343330383301, 3.9348716735839844, -0.5234268307685852, -1.1896787881851196, 
159, 3078789865, -128.3037872314453, -6.714022159576416, 21.30016326904297, 1.0716184377670288, -7.901780605316162, -6.240323543548584, 4.200132369995117, -0.8866110444068909, -1.3380107879638672, 
160, 3078798198, -128.28343200683594, -6.720458030700684, 21.303749084472656, 1.0817224979400635, -7.868138313293457, -6.24929666519165, 4.141476154327393, -0.8935526013374329, -1.477454662322998, 
161, 3078806531, -128.26719665527344, -6.726609230041504, 21.311012268066406, 1.1035220623016357, -7.7588324546813965, -6.2600626945495605, 3.745121717453003, -1.1307661533355713, -1.8790603876113892, 
162, 3078814864, -128.25820922851562, -6.736922264099121, 21.31815528869629, 1.0809496641159058, -7.713761806488037, -6.233580589294434, 2.825416326522827, -0.938838541507721, -2.1074624061584473, 
163, 3078823197, -128.25631713867188, -6.748574733734131, 21.32391929626465, 1.057063341140747, -7.715539455413818, -6.260312080383301, 2.0077078342437744, -0.5798550248146057, -2.2840726375579834, 
164, 3078831530, -128.26077270507812, -6.765701770782471, 21.324562072753906, 1.0723774433135986, -7.795139312744141, -6.272195816040039, 1.1209685802459717, 0.17544469237327576, -2.2691650390625, 
165, 3078839863, -128.26844787597656, -6.784921646118164, 21.324562072753906, 1.0938266515731812, -7.787919044494629, -6.2283196449279785, 0.7769438028335571, 0.5192902088165283, -2.572873115539551, 
166, 3078848196, -128.27890014648438, -6.806062698364258, 21.32276153564453, 1.0999326705932617, -7.844460964202881, -6.245246887207031, 0.36547666788101196, 0.7023038864135742, -2.467137098312378, 
167, 3078856529, -128.28970336914062, -6.826942443847656, 21.319936752319336, 1.0860782861709595, -7.892236709594727, -6.2709527015686035, 0.364093542098999, 0.9089851975440979, -2.518878221511841, 
168, 3078864862, -128.30006408691406, -6.848668098449707, 21.31536865234375, 1.084187388420105, -7.857409477233887, -6.279652118682861, 0.33867138624191284, 1.0058709383010864, -2.3170506954193115, 
169, 3078873195, -128.31356811523438, -6.867361545562744, 21.309797286987305, 1.0932018756866455, -7.747842788696289, -6.245008945465088, -0.0023308955132961273, 1.0023746490478516, -2.1080002784729004, 
170, 3078881528, -128.32986450195312, -6.884661674499512, 21.302705764770508, 1.054931879043579, -7.830341815948486, -6.2480645179748535, -0.4107755124568939, 0.9133652448654175, -1.712721586227417, 
171, 3078889861, -128.3443603515625, -6.9022064208984375, 21.297990798950195, 1.0370526313781738, -7.877366065979004, -6.245569705963135, -0.11052542179822922, 0.8374189138412476, -2.0632779598236084, 
172, 3078898194, -128.35858154296875, -6.921041965484619, 21.293228149414062, 1.0409016609191895, -7.789512634277344, -6.252349853515625, -0.12842975556850433, 0.810728907585144, -2.0280323028564453, 
173, 3078906527, -128.37950134277344, -6.936272621154785, 21.28624153137207, 1.030029535293579, -7.762004375457764, -6.281848430633545, -0.9093565344810486, 0.8782992362976074, -1.676733374595642, 
174, 3078914860, -128.40682983398438, -6.95355749130249, 21.274127960205078, 1.0897903442382812, -7.820825576782227, -6.3273468017578125, -1.8113616704940796, 1.3826179504394531, -1.338087558746338, 
175, 3078923193, -128.4332733154297, -6.96831750869751, 21.2597599029541, 1.1073085069656372, -7.829963207244873, -6.314597129821777, -1.681984305381775, 1.5343823432922363, -1.083046793937683, 
176, 3078931526, -128.45558166503906, -6.9825873374938965, 21.24260902404785, 1.0549023151397705, -7.945488452911377, -6.272150039672852, -1.2819156646728516, 1.6265935897827148, -0.678495466709137, 
177, 3078939859, -128.4674072265625, -6.9929070472717285, 21.22627830505371, 1.0279779434204102, -8.03684139251709, -6.266305446624756, 0.044146131724119186, 1.3845133781433105, -0.519021213054657, 
178, 3078948192, -128.4693603515625, -7.006504535675049, 21.21368408203125, 1.04341721534729, -7.95530891418457, -6.263430118560791, 1.2277542352676392, 1.1522178649902344, -0.9530544281005859, 
179, 3078956525, -128.46932983398438, -7.018568992614746, 21.20172691345215, 1.0300695896148682, -7.892974853515625, -6.25569486618042, 1.5268516540527344, 1.108007788658142, -1.0051026344299316, 
180, 3078964858, -128.47250366210938, -7.031177043914795, 21.19277572631836, 1.0112677812576294, -7.867559909820557, -6.248814582824707, 1.1345696449279785, 0.7376771569252014, -1.1301255226135254, 
181, 3078973191, -128.4796600341797, -7.0423784255981445, 21.18670082092285, 0.9766634702682495, -7.8924970626831055, -6.21598482131958, 0.7529688477516174, 0.4970569908618927, -1.3607817888259888, 
182, 3078981524, -128.4870147705078, -7.054248332977295, 21.184648513793945, 0.9605942964553833, -7.937251091003418, -6.1948370933532715, 0.7326056361198425, 0.04035522788763046, -1.5705113410949707, 
183, 3078989857, -128.49465942382812, -7.064120292663574, 21.186904907226562, 0.9806993007659912, -7.918329238891602, -6.186630725860596, 0.8141612410545349, -0.3814215660095215, -1.855315923690796, 
184, 3078998190, -128.49691772460938, -7.075862407684326, 21.193988800048828, 1.0140265226364136, -8.03184700012207, -6.240086555480957, 1.4806694984436035, -0.8205264806747437, -2.2361228466033936, 
185, 3079006523, -128.49209594726562, -7.088483810424805, 21.206275939941406, 1.045983076095581, -7.937731742858887, -6.250272274017334, 2.4586973190307617, -1.1098134517669678, -2.856524705886841, 
186, 3079014856, -128.4863739013672, -7.10252046585083, 21.21855926513672, 1.1009174585342407, -7.815661430358887, -6.274507999420166, 2.5148181915283203, -1.1330455541610718, -2.835700273513794, 
187, 3079023189, -128.4844207763672, -7.113893032073975, 21.22994041442871, 1.1661432981491089, -7.787961006164551, -6.294791221618652, 2.099637508392334, -1.1205203533172607, -2.673332452774048, 
188, 3079031522, -128.48678588867188, -7.128506183624268, 21.23826026916504, 1.117374300956726, -7.95949125289917, -6.291973114013672, 1.486816644668579, -0.7218347191810608, -2.5965917110443115, 
189, 3079039855, -128.47767639160156, -7.143060207366943, 21.248126983642578, 1.1080297231674194, -7.815822124481201, -6.24699068069458, 2.9364027976989746, -0.7403281331062317, -2.8592658042907715, 
190, 3079048188, -128.46897888183594, -7.155564308166504, 21.259035110473633, 1.1209172010421753, -7.813892841339111, -6.226911544799805, 2.8545398712158203, -1.1219290494918823, -2.590137004852295, 
191, 3079056521, -128.45974731445312, -7.164358139038086, 21.270296096801758, 1.0853183269500732, -7.908414840698242, -6.179993152618408, 2.9716737270355225, -1.300101637840271, -2.418931245803833, 
192, 3079064854, -128.44818115234375, -7.176838397979736, 21.283296585083008, 1.0876412391662598, -7.877140522003174, -6.210910320281982, 3.228764295578003, -1.3183391094207764, -2.7434639930725098, 
193, 3079073187, -128.44805908203125, -7.1903510093688965, 21.29712677001953, 1.1016113758087158, -7.821644306182861, -6.2340803146362305, 1.9176479578018188, -1.1896531581878662, -3.053985118865967, 
194, 3079081520, -128.4549560546875, -7.204613208770752, 21.31025505065918, 1.1352717876434326, -7.817978382110596, -6.241515159606934, 1.0172566175460815, -1.1960054636001587, -2.919407844543457, 
195, 3079089853, -128.46116638183594, -7.214809894561768, 21.3200626373291, 1.1197524070739746, -7.800609111785889, -6.27107048034668, 1.0967631340026855, -1.063554286956787, -2.4453911781311035, 
196, 3079098186, -128.4645538330078, -7.223368167877197, 21.327890396118164, 1.1190577745437622, -7.7354278564453125, -6.272507190704346, 1.3601032495498657, -1.1267446279525757, -1.990507960319519, 
197, 3079106519, -128.46957397460938, -7.228913307189941, 21.335195541381836, 1.1089869737625122, -7.700536727905273, -6.2460761070251465, 1.2009618282318115, -1.1749249696731567, -1.8208904266357422, 
198, 3079114852, -128.47830200195312, -7.235419273376465, 21.339021682739258, 1.0464814901351929, -7.750617980957031, -6.283297538757324, 0.6565568447113037, -0.9082038402557373, -1.5033249855041504, 
199, 3079123185, -128.49110412597656, -7.242883682250977, 21.340370178222656, 1.051689624786377, -7.638720512390137, -6.283565044403076, 0.17808295786380768, -0.47639912366867065, -1.5593433380126953, 
200, 3079131518, -128.51092529296875, -7.250364780426025, 21.338171005249023, 1.0615177154541016, -7.622992038726807, -6.218560218811035, -0.7646873593330383, -0.27422598004341125, -1.14754319190979, 
201, 3079139851, -128.53652954101562, -7.253197193145752, 21.33360481262207, 1.0504661798477173, -7.759889602661133, -6.193474292755127, -1.4459747076034546, -0.2707168459892273, -0.6859491467475891, 
202, 3079148184, -128.55654907226562, -7.254456043243408, 21.33064079284668, 1.060451865196228, -7.863720893859863, -6.236928462982178, -0.8019304275512695, -0.6670458912849426, -0.5052919983863831, 
203, 3079156517, -128.57293701171875, -7.25277042388916, 21.332542419433594, 1.1057937145233154, -7.923447132110596, -6.230112075805664, -0.24072258174419403, -1.2130132913589478, -0.7424541115760803, 
204, 3079164850, -128.58253479003906, -7.253812313079834, 21.340957641601562, 1.1443133354187012, -7.957025051116943, -6.2812933921813965, 0.621695876121521, -1.741101861000061, -1.3312742710113525, 
205, 3079173183, -128.5870819091797, -7.253274917602539, 21.352951049804688, 1.1683745384216309, -7.947895526885986, -6.2964324951171875, 1.331748127937317, -2.0635085105895996, -1.597969889640808, 
206, 3079181516, -128.58145141601562, -7.257845401763916, 21.36567497253418, 1.1671099662780762, -7.969084739685059, -6.338618755340576, 2.514664649963379, -1.8799054622650146, -1.9817732572555542, 
207, 3079189849, -128.5705108642578, -7.2639055252075195, 21.37482452392578, 1.1762629747390747, -7.867785930633545, -6.306545734405518, 3.1448004245758057, -1.307350516319275, -2.006849527359009, 
208, 3079198182, -128.56349182128906, -7.273473739624023, 21.381059646606445, 1.1563047170639038, -7.879639625549316, -6.3452959060668945, 2.5854368209838867, -0.9014673829078674, -1.9683517217636108, 
209, 3079206515, -128.55422973632812, -7.281890869140625, 21.38190460205078, 1.128075122833252, -7.886821269989014, -6.372121334075928, 2.819704532623291, -0.35573047399520874, -1.6101620197296143, 
210, 3079214848, -128.54531860351562, -7.292409420013428, 21.377704620361328, 1.148687720298767, -7.750917434692383, -6.294223308563232, 2.651470422744751, 0.14114724099636078, -1.283221960067749, 
211, 3079223181, -128.5453643798828, -7.298253536224365, 21.371774673461914, 1.1138370037078857, -7.805436611175537, -6.232699871063232, 1.6004925966262817, 0.0813123807311058, -0.8661965727806091, 
212, 3079231514, -128.5500946044922, -7.306167125701904, 21.3649959564209, 1.0699079036712646, -7.888978004455566, -6.248780727386475, 0.9747112393379211, 0.185331791639328, -0.8479079604148865, 
213, 3079239847, -128.55877685546875, -7.310898780822754, 21.36233901977539, 1.0330636501312256, -7.874578952789307, -6.235583782196045, 0.6107330322265625, -0.3092150092124939, -1.0059478282928467, 
214, 3079248180, -128.58018493652344, -7.313357830047607, 21.359798431396484, 1.066996693611145, -7.756642818450928, -6.246313095092773, -0.9596885442733765, -0.6171237230300903, -0.6503965854644775, 
215, 3079256513, -128.61795043945312, -7.310695648193359, 21.360143661499023, 1.1082350015640259, -7.800780296325684, -6.290442943572998, -2.8349833488464355, -1.1393210887908936, -0.5340568423271179, 
216, 3079264846, -128.65472412109375, -7.306829929351807, 21.362749099731445, 1.1127065420150757, -7.789339542388916, -6.2511067390441895, -2.72637939453125, -1.5699220895767212, -0.43905359506607056, 
217, 3079273179, -128.68951416015625, -7.295446395874023, 21.370920181274414, 1.1114990711212158, -7.829415321350098, -6.218795299530029, -2.356945276260376, -2.521362781524658, -0.2999427020549774, 
218, 3079281512, -128.719970703125, -7.2818603515625, 21.384428024291992, 1.1106452941894531, -7.902753829956055, -6.2749457359313965, -1.8039592504501343, -3.312227964401245, -0.3416682779788971, 
219, 3079289845, -128.75070190429688, -7.268624305725098, 21.404760360717773, 1.138916015625, -7.69858980178833, -6.312568187713623, -1.6836750507354736, -3.787986993789673, -1.0317671298980713, 
220, 3079298178, -128.7850799560547, -7.257418632507324, 21.420637130737305, 1.1388188600540161, -7.600261211395264, -6.348526954650879, -2.2366347312927246, -3.354081153869629, -0.7436835765838623, 
221, 3079306511, -128.8235626220703, -7.246675491333008, 21.432287216186523, 1.1945230960845947, -7.712451457977295, -6.414066791534424, -2.7486250400543213, -2.7968053817749023, -0.621414065361023, 
222, 3079314844, -128.85511779785156, -7.240281581878662, 21.439828872680664, 1.193423867225647, -7.915606498718262, -6.3545942306518555, -2.027545928955078, -2.2166812419891357, -0.5726574063301086, 
223, 3079323177, -128.8736572265625, -7.231509208679199, 21.450931549072266, 1.215930461883545, -7.856678009033203, -6.356903553009033, -0.3604947328567505, -2.6000497341156006, -0.7673256397247314, 
224, 3079331510, -128.89231872558594, -7.222878932952881, 21.465341567993164, 1.2724705934524536, -7.827170372009277, -6.331343173980713, -0.3780148923397064, -3.0227103233337402, -0.8781840205192566, 
225, 3079339843, -128.89842224121094, -7.214293479919434, 21.48482894897461, 1.3015415668487549, -7.600728988647461, -6.397684574127197, 1.254188060760498, -3.361586570739746, -1.412087082862854, 
226, 3079348176, -128.9169464111328, -7.209031581878662, 21.498313903808594, 1.2930197715759277, -7.607875823974609, -6.432517051696777, -0.3735964000225067, -2.6819257736206055, -1.1242984533309937, 
227, 3079356509, -128.9318084716797, -7.202159881591797, 21.507892608642578, 1.2309823036193848, -7.78887939453125, -6.627437591552734, 0.05562131106853485, -2.3152451515197754, -0.8299011588096619, 
228, 3079364842, -128.9573516845703, -7.200258255004883, 21.515356063842773, 0.945833146572113, -8.414151191711426, -5.845833778381348, -1.3055574893951416, -1.8711713552474976, -0.9891961216926575, 
229, 3079373175, -128.90142822265625, -7.191378116607666, 21.549598693847656, 1.437005877494812, -6.807723522186279, -6.552845478057861, 8.920145988464355, -4.751671314239502, -2.4861693382263184, 
230, 3079381508, -128.9492950439453, -7.184911727905273, 21.55103874206543, 1.4504154920578003, -7.2029571533203125, -6.4307541847229, -4.078017234802246, -1.6597001552581787, -0.11313807964324951, 
231, 3079389841, -128.99864196777344, -7.173908233642578, 21.540578842163086, 0.9563277363777161, -7.773177623748779, -6.362479209899902, -4.3806233406066895, -0.7727815508842468, 1.0575478076934814, 
232, 3079398174, -129.0327606201172, -7.164567947387695, 21.53140640258789, 1.091576337814331, -7.809802055358887, -6.243577480316162, -2.588651657104492, -0.8950638175010681, 0.9494044184684753, 
233, 3079406507, -129.06422424316406, -7.156692981719971, 21.522855758666992, 1.1574444770812988, -7.748293876647949, -6.314323425292969, -2.2046172618865967, -0.7142273187637329, 0.6245647072792053, 
234, 3079414840, -129.09210205078125, -7.153872966766357, 21.516571044921875, 1.1592941284179688, -7.833983421325684, -6.333347320556641, -1.7933293581008911, -0.6700939536094666, 0.1257787048816681, 
235, 3079423173, -129.1126251220703, -7.151167869567871, 21.508544921875, 1.0857229232788086, -7.83966588973999, -6.363154888153076, -0.8871489763259888, -0.3744544982910156, 0.1020343005657196, 
236, 3079431506, -129.1311798095703, -7.156962871551514, 21.502391815185547, 1.1681450605392456, -7.822785377502441, -6.332132816314697, -0.6703757047653198, -0.0294563677161932, -0.684975802898407, 
237, 3079439839, -129.14559936523438, -7.1661272048950195, 21.495561599731445, 1.1339759826660156, -7.988588333129883, -6.372611045837402, -0.13849616050720215, 0.41268375515937805, -1.0913456678390503, 
238, 3079448172, -129.14871215820312, -7.181319713592529, 21.491283416748047, 1.1657135486602783, -7.894162654876709, -6.354285717010498, 1.2077240943908691, 0.5078918933868408, -1.7000937461853027, 
239, 3079456505, -129.1476593017578, -7.198644638061523, 21.4820499420166, 1.1516317129135132, -7.920628070831299, -6.427933692932129, 1.6852500438690186, 1.2561092376708984, -1.6699455976486206, 
240, 3079464838, -129.13668823242188, -7.220556735992432, 21.471282958984375, 1.1397346258163452, -7.876847743988037, -6.356616973876953, 2.799802303314209, 1.615143895149231, -1.838256597518921, 
241, 3079473171, -129.12643432617188, -7.241902828216553, 21.45591163635254, 1.113031029701233, -7.851040363311768, -6.338657379150391, 2.6939899921417236, 2.126147747039795, -1.584855079650879, 
242, 3079481504, -129.10948181152344, -7.264093399047852, 21.439823150634766, 1.0787333250045776, -7.900557994842529, -6.278674602508545, 3.4372897148132324, 2.1281464099884033, -1.4654673337936401, 
243, 3079489837, -129.08815002441406, -7.283204078674316, 21.421443939208984, 1.0370789766311646, -7.870389938354492, -6.2490363121032715, 3.976597309112549, 2.2311153411865234, -1.1503353118896484, 
244, 3079498170, -129.0635223388672, -7.299407958984375, 21.40514373779297, 1.0291827917099, -7.870212554931641, -6.232910633087158, 4.352845191955566, 1.6956496238708496, -0.8949870467185974, 
245, 3079506503, -129.0327606201172, -7.314324855804443, 21.390888214111328, 1.0641145706176758, -7.836658000946045, -6.204372406005859, 5.165558815002441, 1.535022497177124, -1.071340799331665, 
246, 3079514836, -128.99989318847656, -7.329658031463623, 21.37931251525879, 1.063621997833252, -7.74570369720459, -6.208656311035156, 5.4148359298706055, 1.1914331912994385, -1.1693922281265259, 
247, 3079523169, -128.96817016601562, -7.340793609619141, 21.373302459716797, 1.0751467943191528, -7.759657859802246, -6.225127696990967, 5.407408237457275, 0.48350706696510315, -1.340520977973938, 
248, 3079531502, -128.93431091308594, -7.3543620109558105, 21.374435424804688, 1.1017844676971436, -7.801052093505859, -6.2483673095703125, 5.725281715393066, -0.11818408221006393, -1.9594378471374512, 
249, 3079539835, -128.90359497070312, -7.368894577026367, 21.37823486328125, 1.1296299695968628, -7.756776332855225, -6.232075214385986, 5.43845272064209, -0.1675427109003067, -2.392651319503784, 
250, 3079548168, -128.87692260742188, -7.3863749504089355, 21.38262176513672, 1.1372814178466797, -7.677629470825195, -6.306153297424316, 4.913796424865723, -0.1277894228696823, -2.5680577754974365, 
251, 3079556501, -128.8559112548828, -7.402791500091553, 21.385215759277344, 1.1813461780548096, -7.700502395629883, -6.288647651672363, 4.251258850097656, 0.08325907588005066, -2.4809694290161133, 
252, 3079564834, -128.839111328125, -7.423341751098633, 21.388212203979492, 1.2028069496154785, -7.705819129943848, -6.312618732452393, 3.709210157394409, 0.23120689392089844, -2.7528133392333984, 
253, 3079573167, -128.8283233642578, -7.441943645477295, 21.391122817993164, 1.1945364475250244, -7.669167995452881, -6.298473358154297, 3.0316622257232666, 0.2177594155073166, -2.7085773944854736, 
254, 3079581500, -128.82473754882812, -7.461123943328857, 21.394315719604492, 1.1631911993026733, -7.708158016204834, -6.268109321594238, 2.128812074661255, 0.10984665155410767, -2.636934518814087, 
255, 3079589833, -128.82203674316406, -7.477776527404785, 21.397907257080078, 1.2082889080047607, -7.836452960968018, -6.279072284698486, 2.069873809814453, 0.007722692098468542, -2.5781497955322266, 
256, 3079598166, -128.8167266845703, -7.494889736175537, 21.405576705932617, 1.2233867645263672, -7.801358222961426, -6.2595672607421875, 2.4039342403411865, -0.4609537422657013, -2.778580904006958, 
257, 3079606499, -128.81236267089844, -7.507368564605713, 21.41293716430664, 1.2663509845733643, -7.712154388427734, -6.324849605560303, 2.3312156200408936, -0.6569538712501526, -2.4684436321258545, 
258, 3079614832, -128.80810546875, -7.518345355987549, 21.4183406829834, 1.2851418256759644, -7.734750747680664, -6.382179260253906, 2.2402851581573486, -0.7133564949035645, -2.0372283458709717, 
259, 3079623165, -128.80471801757812, -7.524508953094482, 21.422151565551758, 1.311896800994873, -7.736642360687256, -6.391955375671387, 2.158165693283081, -0.8028269410133362, -1.6099058389663696, 
260, 3079631498, -128.80819702148438, -7.530944347381592, 21.423620223999023, 1.3059555292129517, -7.749101161956787, -6.359096527099609, 1.2528306245803833, -0.6882033348083496, -1.319005012512207, 
261, 3079639831, -128.812255859375, -7.536703109741211, 21.42571449279785, 1.2511447668075562, -7.840985298156738, -6.375648021697998, 1.2381536960601807, -0.6757034659385681, -1.4454880952835083, 
262, 3079648164, -128.81314086914062, -7.544229984283447, 21.426589965820312, 1.2402650117874146, -7.8552398681640625, -6.349185943603516, 1.5522609949111938, -0.5537285208702087, -1.376867651939392, 
263, 3079656497, -128.81387329101562, -7.550537586212158, 21.42582130432129, 1.2628166675567627, -7.792755603790283, -6.351385593414307, 1.5937049388885498, -0.3687937557697296, -1.2823766469955444, 
264, 3079664830, -128.81700134277344, -7.556924819946289, 21.424762725830078, 1.2636643648147583, -7.784108638763428, -6.348451137542725, 1.2527793645858765, -0.45869967341423035, -1.1249003410339355, 
265, 3079673163, -128.8235626220703, -7.562808990478516, 21.422203063964844, 1.2721045017242432, -7.691702365875244, -6.351359844207764, 0.8668753504753113, -0.2351386547088623, -1.1081485748291016, 
266, 3079681496, -128.8389434814453, -7.568443298339844, 21.418458938598633, 1.236196756362915, -7.71185827255249, -6.379785060882568, -0.25957468152046204, -0.2662087678909302, -0.8562583327293396, 
267, 3079689829, -128.85696411132812, -7.571652412414551, 21.41381072998047, 1.2273563146591187, -7.765648365020752, -6.346080780029297, -0.5439438819885254, -0.24282294511795044, -0.699908971786499, 
268, 3079698162, -128.87478637695312, -7.575170993804932, 21.411184310913086, 1.2310396432876587, -7.778293609619141, -6.30769157409668, -0.5333396196365356, -0.5302658677101135, -0.7403026223182678, 
269, 3079706495, -128.88865661621094, -7.577206134796143, 21.40958023071289, 1.2350385189056396, -7.828707695007324, -6.323620319366455, 0.004956353921443224, -0.6126924753189087, -0.8170684576034546, 
270, 3079714828, -128.89849853515625, -7.579158782958984, 21.410947799682617, 1.2247025966644287, -7.833006858825684, -6.295774936676025, 0.4850183129310608, -1.0169363021850586, -0.8919644355773926, 
271, 3079723161, -128.90794372558594, -7.577491283416748, 21.41499900817871, 1.2419496774673462, -7.824595928192139, -6.347604751586914, 0.6242574453353882, -1.4162368774414062, -0.8940906524658203, 
272, 3079731494, -128.9176025390625, -7.576431751251221, 21.417476654052734, 1.284264326095581, -7.802149295806885, -6.37072229385376, 0.5262572169303894, -1.3475391864776611, -0.6933773159980774, 
273, 3079739827, -128.92872619628906, -7.573553085327148, 21.418790817260742, 1.321838140487671, -7.84161901473999, -6.360965251922607, 0.3776947259902954, -1.2553024291992188, -0.5758848786354065, 
274, 3079748160, -128.9388427734375, -7.574487686157227, 21.420785903930664, 1.287390112876892, -7.818400859832764, -6.370500564575195, 0.4665376842021942, -1.1492466926574707, -0.8441555500030518, 
275, 3079756493, -128.94898986816406, -7.57233190536499, 21.419797897338867, 1.2618829011917114, -7.872905254364014, -6.371581077575684, 0.45661213994026184, -0.9901694655418396, -0.4716092646121979, 
276, 3079764826, -128.95277404785156, -7.573492050170898, 21.416481018066406, 1.2521623373031616, -7.802692890167236, -6.37608003616333, 1.1394363641738892, -0.6426867246627808, -0.4681769907474518, 
277, 3079773159, -128.95291137695312, -7.575137615203857, 21.4104061126709, 1.245202898979187, -7.690578460693359, -6.352660655975342, 1.5804879665374756, -0.2320137619972229, -0.4444581866264343, 
278, 3079781492, -128.95693969726562, -7.5785322189331055, 21.401729583740234, 1.2200175523757935, -7.772686958312988, -6.3469319343566895, 1.0256962776184082, 0.021720869466662407, -0.2761598527431488, 
279, 3079789825, -128.9572296142578, -7.5813775062561035, 21.39142417907715, 1.1894819736480713, -7.790432929992676, -6.315130710601807, 1.4933738708496094, 0.2502894699573517, -0.23903203010559082, 
280, 3079798158, -128.95587158203125, -7.585378646850586, 21.38178062438965, 1.1633901596069336, -7.683599948883057, -6.260626792907715, 1.656459927558899, 0.15661823749542236, -0.2603687345981598, 
281, 3079806491, -128.9565887451172, -7.587043285369873, 21.37259864807129, 1.126272439956665, -7.780811309814453, -6.216971397399902, 1.4614585638046265, 0.057235006242990494, -0.2136739194393158, 
282, 3079814824, -128.9553985595703, -7.589540481567383, 21.368366241455078, 1.1454224586486816, -7.739749431610107, -6.193564414978027, 1.7218784093856812, -0.4580081105232239, -0.5238879323005676, 
283, 3079823157, -128.9539794921875, -7.588766098022461, 21.365785598754883, 1.1702150106430054, -7.688148021697998, -6.231770038604736, 1.8212103843688965, -0.7363067865371704, -0.479472815990448, 
284, 3079831490, -128.95489501953125, -7.588383674621582, 21.363943099975586, 1.1444029808044434, -7.746870040893555, -6.251394271850586, 1.508486270904541, -0.8972665667533875, -0.4354163706302643, 
285, 3079839823, -128.95599365234375, -7.586245059967041, 21.3607234954834, 1.1386134624481201, -7.826737403869629, -6.282364845275879, 1.5082299709320068, -0.7825404405593872, -0.30478376150131226, 
286, 3079848156, -128.95301818847656, -7.586012840270996, 21.354860305786133, 1.1694507598876953, -7.8246588706970215, -6.336860656738281, 1.909579873085022, -0.5119261741638184, -0.1475379914045334, 
287, 3079856489, -128.9538116455078, -7.586251735687256, 21.3472957611084, 1.2145169973373413, -7.818665504455566, -6.334958076477051, 1.4772881269454956, -0.2013535052537918, -0.20114856958389282, 
288, 3079864822, -128.95382690429688, -7.589763641357422, 21.341093063354492, 1.2145956754684448, -7.999374866485596, -6.301139831542969, 1.5476632118225098, -0.198318213224411, -0.47149398922920227, 
289, 3079873155, -128.94525146484375, -7.593706130981445, 21.339021682739258, 1.1695555448532104, -8.00175952911377, -6.282329559326172, 2.687201976776123, -0.42932015657424927, -0.956870973110199, 
290, 3079881488, -128.93165588378906, -7.601378440856934, 21.34044075012207, 1.1968708038330078, -7.950132369995117, -6.341264724731445, 3.299715757369995, -0.5886663794517517, -1.4307600259780884, 
291, 3079889821, -128.9164581298828, -7.608554363250732, 21.342876434326172, 1.2322887182235718, -7.816661357879639, -6.346052169799805, 3.5520665645599365, -0.603958010673523, -1.595484972000122, 
292, 3079898154, -128.9054718017578, -7.619744777679443, 21.344594955444336, 1.2014737129211426, -7.705535411834717, -6.320869445800781, 2.993420362472534, -0.35217010974884033, -1.7808295488357544, 
293, 3079906487, -128.89706420898438, -7.630540370941162, 21.345624923706055, 1.1833549737930298, -7.7920331954956055, -6.286206245422363, 2.714635133743286, -0.2012254297733307, -1.8301113843917847, 
294, 3079914820, -128.8818359375, -7.642906665802002, 21.349239349365234, 1.1477649211883545, -7.828018665313721, -6.238804340362549, 3.5310375690460205, -0.4401549994945526, -2.033385992050171, 
295, 3079923153, -128.86546325683594, -7.653614521026611, 21.356346130371094, 1.1612261533737183, -7.786871433258057, -6.180604457855225, 3.7663047313690186, -0.7714239954948425, -2.275773525238037, 
296, 3079931486, -128.84303283691406, -7.663965702056885, 21.364036560058594, 1.1274464130401611, -7.869564533233643, -6.23461389541626, 4.461910247802734, -0.9698061943054199, -2.148496389389038, 
297, 3079939819, -128.81512451171875, -7.675176620483398, 21.371126174926758, 1.1640634536743164, -7.762253284454346, -6.248443126678467, 5.152187824249268, -0.732592761516571, -2.323108434677124, 
298, 3079948152, -128.78662109375, -7.685690879821777, 21.375585556030273, 1.2334524393081665, -7.702581882476807, -6.2462944984436035, 5.137971878051758, -0.660309374332428, -1.9236032962799072, 
299, 3079956485, -128.76515197753906, -7.695431709289551, 21.38088035583496, 1.2690774202346802, -7.844787120819092, -6.275317668914795, 4.351845741271973, -0.6793919205665588, -2.050394058227539, 
300, 3079964818, -128.7425079345703, -7.708847999572754, 21.387422561645508, 1.2944895029067993, -7.8705267906188965, -6.271098613739014, 4.468160152435303, -0.6358733177185059, -2.3506948947906494, 
301, 3079973151, -128.71514892578125, -7.723710536956787, 21.39154052734375, 1.3103307485580444, -7.7839555740356445, -6.362175464630127, 5.037359714508057, -0.18649724125862122, -2.4412670135498047, 
302, 3079981484, -128.69383239746094, -7.74237060546875, 21.39426612854004, 1.3250762224197388, -7.815788269042969, -6.37552547454834, 4.24900484085083, 0.10961612313985825, -2.5587596893310547, 
303, 3079989817, -128.6746826171875, -7.760809421539307, 21.392398834228516, 1.2859454154968262, -7.724884510040283, -6.325699329376221, 3.9555678367614746, 0.6359374523162842, -2.332919120788574, 
304, 3079998150, -128.66183471679688, -7.779383182525635, 21.386764526367188, 1.2646396160125732, -7.800500869750977, -6.281851291656494, 3.0964407920837402, 0.8791446685791016, -1.9282909631729126, 
305, 3080006483, -128.64488220214844, -7.7986016273498535, 21.383663177490234, 1.2060229778289795, -7.861573696136475, -6.190684795379639, 3.6727097034454346, 0.8071942329406738, -2.315065860748291, 
306, 3080014816, -128.6280975341797, -7.819403171539307, 21.382951736450195, 1.2138954401016235, -7.855870723724365, -6.203756332397461, 3.6497855186462402, 0.588499903678894, -2.5050981044769287, 
307, 3080023149, -128.611328125, -7.837569713592529, 21.384004592895508, 1.2268790006637573, -7.843777179718018, -6.210972785949707, 3.718430995941162, 0.3407590091228485, -2.5245134830474854, 
308, 3080031482, -128.59434509277344, -7.855861663818359, 21.388763427734375, 1.2815907001495361, -7.770443916320801, -6.236193656921387, 3.7613863945007324, -0.10857874900102615, -2.674971580505371, 
309, 3080039815, -128.5807647705078, -7.873846530914307, 21.39303207397461, 1.2567148208618164, -7.64601469039917, -6.261080741882324, 3.3853440284729004, 0.027676180005073547, -2.7460508346557617, 
310, 3080048148, -128.5732421875, -7.89172887802124, 21.398149490356445, 1.2700663805007935, -7.6470465660095215, -6.265517234802246, 2.6327974796295166, -0.1754831224679947, -2.6656219959259033, 
311, 3080056481, -128.5701904296875, -7.906517028808594, 21.401933670043945, 1.2710869312286377, -7.6733174324035645, -6.237171173095703, 2.118335485458374, -0.16605708003044128, -2.410248279571533, 
312, 3080064814, -128.5745391845703, -7.9214606285095215, 21.407997131347656, 1.2613651752471924, -7.658458709716797, -6.240522861480713, 1.223809838294983, -0.48267462849617004, -2.4594533443450928, 
313, 3080073147, -128.5838165283203, -7.932569980621338, 21.416181564331055, 1.2870228290557861, -7.782703399658203, -6.256779670715332, 0.7123190760612488, -0.8495473265647888, -2.3910632133483887, 
314, 3080081480, -128.58970642089844, -7.942193508148193, 21.426048278808594, 1.3053573369979858, -7.7994561195373535, -6.2775959968566895, 1.1030642986297607, -1.233888864517212, -2.244062900543213, 
315, 3080089813, -128.5950927734375, -7.947571277618408, 21.436674118041992, 1.3409565687179565, -7.784769058227539, -6.313118934631348, 1.2182002067565918, -1.50619375705719, -2.031644344329834, 
316, 3080098146, -128.59909057617188, -7.952230453491211, 21.44499397277832, 1.3172390460968018, -7.8600358963012695, -6.3432536125183105, 1.3045201301574707, -1.4611127376556396, -1.6632347106933594, 
317, 3080106479, -128.6017303466797, -7.953598976135254, 21.45061492919922, 1.3618890047073364, -7.84877872467041, -6.4028754234313965, 1.4647115468978882, -1.3427237272262573, -1.285527229309082, 
318, 3080114812, -128.60646057128906, -7.9579386711120605, 21.450912475585938, 1.4000259637832642, -7.797407150268555, -6.371573448181152, 1.083213210105896, -0.7393805384635925, -1.0376070737838745, 
319, 3080123145, -128.615478515625, -7.958270072937012, 21.446081161499023, 1.3614006042480469, -7.9853410720825195, -6.3135857582092285, 0.5251814126968384, -0.4504775404930115, -0.41361865401268005, 
320, 3080131478, -128.6105499267578, -7.959223747253418, 21.443986892700195, 1.3021761178970337, -8.104172706604004, -6.337853908538818, 2.2031188011169434, -0.7699382305145264, -0.5422020554542542, 
321, 3080139811, -128.59324645996094, -7.957062721252441, 21.443784713745117, 1.3118232488632202, -7.938267230987549, -6.3625664710998535, 3.7637429237365723, -1.065551996231079, -0.5217875838279724, 
322, 3080148144, -128.57687377929688, -7.954806327819824, 21.4446964263916, 1.3171123266220093, -7.768155097961426, -6.349416732788086, 3.62428617477417, -1.291738748550415, -0.46363040804862976, 
323, 3080156477, -128.56729125976562, -7.950314521789551, 21.445158004760742, 1.2933690547943115, -7.815441131591797, -6.312338829040527, 2.8473806381225586, -1.302394151687622, -0.35261836647987366, 
324, 3080164810, -128.5535125732422, -7.947750091552734, 21.44864273071289, 1.2784535884857178, -7.854803085327148, -6.282081127166748, 3.35739803314209, -1.5531188249588013, -0.6263704299926758, 
325, 3080173143, -128.54168701171875, -7.9416728019714355, 21.4559268951416, 1.2727200984954834, -7.712043762207031, -6.2499470710754395, 3.2264840602874756, -2.054363965988159, -0.707260251045227, 
326, 3080181476, -128.5318603515625, -7.935138702392578, 21.46063995361328, 1.2400778532028198, -7.658329486846924, -6.274181842803955, 2.9044878482818604, -1.9648936986923218, -0.343896746635437, 
327, 3080189809, -128.52659606933594, -7.925224781036377, 21.463184356689453, 1.2259029150009155, -7.735735893249512, -6.313888072967529, 2.3594424724578857, -1.900473952293396, 0.004111084621399641, 
328, 3080198142, -128.5154266357422, -7.915714740753174, 21.464696884155273, 1.2548704147338867, -7.646969795227051, -6.286656856536865, 3.0114529132843018, -1.8903050422668457, 0.17265275120735168, 
329, 3080206475, -128.51124572753906, -7.905531883239746, 21.462827682495117, 1.2515512704849243, -7.654507160186768, -6.249284267425537, 2.1618285179138184, -1.509831190109253, 0.35648608207702637, 
330, 3080214808, -128.51087951660156, -7.896806240081787, 21.46104621887207, 1.1905004978179932, -7.774611949920654, -6.199415683746338, 1.6593029499053955, -1.5230991840362549, 0.34308984875679016, 
331, 3080223141, -128.51129150390625, -7.88606071472168, 21.46226692199707, 1.2131248712539673, -7.807829856872559, -6.247791290283203, 1.658918857574463, -1.8428162336349487, 0.17787806689739227, 
332, 3080231474, -128.51177978515625, -7.876183032989502, 21.466659545898438, 1.2104164361953735, -7.793385028839111, -6.2323479652404785, 1.6614289283752441, -2.1841769218444824, -0.004789861384779215, 
333, 3080239807, -128.51014709472656, -7.867105960845947, 21.473434448242188, 1.2525513172149658, -7.760283946990967, -6.252109527587891, 1.9969240427017212, -2.2305643558502197, -0.38662126660346985, 
334, 3080248140, -128.51242065429688, -7.8601226806640625, 21.480344772338867, 1.2295336723327637, -7.761630058288574, -6.283024311065674, 1.4872777462005615, -2.200826406478882, -0.4639250338077545, 
335, 3080256473, -128.51397705078125, -7.855374336242676, 21.486835479736328, 1.2286875247955322, -7.793590068817139, -6.311504364013672, 1.6099443435668945, -1.885284662246704, -0.7726790308952332, 
336, 3080264806, -128.51446533203125, -7.8551812171936035, 21.489978790283203, 1.2676156759262085, -7.737853527069092, -6.314489841461182, 1.6389397382736206, -1.3449523448944092, -0.8226779699325562, 
337, 3080273139, -128.5142059326172, -7.856968402862549, 21.491275787353516, 1.2828867435455322, -7.812723636627197, -6.314183712005615, 1.7413196563720703, -0.9113799929618835, -1.0018237829208374, 
338, 3080281472, -128.5100860595703, -7.864234447479248, 21.491228103637695, 1.2847381830215454, -7.85775899887085, -6.291997909545898, 2.140261650085449, -0.4904870390892029, -1.2887290716171265, 
339, 3080289805, -128.50392150878906, -7.871364593505859, 21.487289428710938, 1.2594130039215088, -7.804620742797852, -6.270057201385498, 2.363156795501709, -0.02558862417936325, -1.1147570610046387, 
340, 3080298138, -128.4971923828125, -7.879273891448975, 21.481426239013672, 1.2492976188659668, -7.911866188049316, -6.268187522888184, 2.3560099601745605, 0.0981665551662445, -0.9180397391319275, 
341, 3080306471, -128.48780822753906, -7.885573863983154, 21.47772216796875, 1.2240104675292969, -7.875952243804932, -6.2383270263671875, 2.7549519538879395, -0.11014121770858765, -1.0551784038543701, 
342, 3080314804, -128.4791717529297, -7.895155906677246, 21.477542877197266, 1.1831769943237305, -7.744717121124268, -6.253653526306152, 2.679184675216675, -0.30488622188568115, -1.4944881200790405, 
343, 3080323137, -128.47344970703125, -7.904234886169434, 21.4761962890625, 1.229824185371399, -7.7058587074279785, -6.2602858543396, 2.353064775466919, -0.12189814448356628, -1.4909790754318237, 
344, 3080331470, -128.47369384765625, -7.913462162017822, 21.47397804260254, 1.2332940101623535, -7.615296840667725, -6.227141380310059, 1.579898715019226, -0.14231270551681519, -1.3124735355377197, 
345, 3080339803, -128.48248291015625, -7.916082382202148, 21.46552848815918, 1.2541508674621582, -7.658491611480713, -6.233795642852783, 0.49523845314979553, 0.05646658316254616, -0.3588554561138153, 
346, 3080348136, -128.487548828125, -7.917991638183594, 21.451818466186523, 1.224867343902588, -7.786763668060303, -6.214240074157715, 0.813418447971344, 0.3809989094734192, 0.22733913362026215, 
347, 3080356469, -128.49156188964844, -7.917398929595947, 21.43726348876953, 1.2471407651901245, -7.830252170562744, -6.21635627746582, 0.9702544212341309, 0.38566070795059204, 0.3957783579826355, 
348, 3080364802, -128.49520874023438, -7.919644355773926, 21.423128128051758, 1.2711321115493774, -7.868464469909668, -6.218367576599121, 0.9737891554832458, 0.4461103081703186, 0.22695492208003998, 
349, 3080373135, -128.49734497070312, -7.919847011566162, 21.408960342407227, 1.281746506690979, -7.864872932434082, -6.241270542144775, 1.1975806951522827, 0.4066387712955475, 0.29109296202659607, 
350, 3080381468, -128.4979248046875, -7.922508239746094, 21.395355224609375, 1.2674909830093384, -7.743181228637695, -6.266741752624512, 1.3518552780151367, 0.4275656044483185, 0.14854975044727325, 
351, 3080389801, -128.4966278076172, -7.922682285308838, 21.381547927856445, 1.2459734678268433, -7.815857887268066, -6.274642467498779, 1.618320107460022, 0.3716241121292114, 0.2685011923313141, 
352, 3080398134, -128.49234008789062, -7.926233291625977, 21.3693904876709, 1.2971268892288208, -7.859875202178955, -6.26802396774292, 1.9611921310424805, 0.3591243624687195, -0.04262208566069603, 
353, 3080406467, -128.4874725341797, -7.932049751281738, 21.363147735595703, 1.2722924947738647, -7.821649551391602, -6.256659030914307, 2.1689491271972656, 0.08935526013374329, -0.821653425693512, 
354, 3080414800, -128.4824676513672, -7.940877914428711, 21.353910446166992, 1.23580002784729, -7.927629470825195, -6.2620625495910645, 2.092388391494751, 0.48056143522262573, -0.7541342973709106, 
355, 3080423133, -128.47369384765625, -7.950472831726074, 21.350975036621094, 1.2602684497833252, -7.880695343017578, -6.259194374084473, 2.694425582885742, 0.06479120999574661, -1.4212570190429688, 
356, 3080431466, -128.46913146972656, -7.962068557739258, 21.347789764404297, 1.3011194467544556, -7.7885236740112305, -6.280552387237549, 2.142669200897217, 0.1239088624715805, -1.463008165359497, 
357, 3080439799, -128.46763610839844, -7.970660209655762, 21.342945098876953, 1.2952667474746704, -7.791471004486084, -6.285088062286377, 1.788193702697754, 0.16589058935642242, -1.1851450204849243, 
358, 3080448132, -128.46607971191406, -7.97859525680542, 21.33653450012207, 1.2795315980911255, -7.785063743591309, -6.271527290344238, 1.7258743047714233, 0.1520588994026184, -0.8787475228309631, 
359, 3080456465, -128.46768188476562, -7.986495018005371, 21.329919815063477, 1.238469123840332, -7.8609938621521, -6.2025017738342285, 1.3880609273910522, 0.2788877487182617, -0.9904384016990662, 
360, 3080464798, -128.46922302246094, -7.99428653717041, 21.325559616088867, 1.2576326131820679, -7.875168800354004, -6.265310287475586, 1.3873053789138794, -0.05104916915297508, -1.0169875621795654, 
361, 3080473131, -128.46951293945312, -7.9998555183410645, 21.32033920288086, 1.273271918296814, -7.852743148803711, -6.239551544189453, 1.5688848495483398, -0.023718781769275665, -0.8731893301010132, 
362, 3080481464, -128.46823120117188, -8.004806518554688, 21.315353393554688, 1.3048380613327026, -7.863910675048828, -6.226431846618652, 1.7169349193572998, -0.20371000468730927, -0.7048012614250183, 
363, 3080489797, -128.4664764404297, -8.004887580871582, 21.311437606811523, 1.2963649034500122, -7.893481731414795, -6.247155666351318, 1.8344533443450928, -0.55488121509552, -0.45380744338035583, 
364, 3080498130, -128.4612274169922, -8.006003379821777, 21.31076431274414, 1.2659907341003418, -7.764230728149414, -6.250016689300537, 2.2651565074920654, -0.8916571736335754, -0.6632806658744812, 
365, 3080506463, -128.46633911132812, -8.001593589782715, 21.3084659576416, 1.2822761535644531, -7.728132247924805, -6.280102729797363, 1.03705632686615, -1.0425505638122559, -0.15219977498054504, 
366, 3080514796, -128.47528076171875, -7.997805595397949, 21.305208206176758, 1.2374632358551025, -7.869765281677246, -6.292091369628906, 0.517445981502533, -1.0183963775634766, -0.012269217520952225, 
367, 3080523129, -128.4840545654297, -7.991540908813477, 21.30398178100586, 1.2588789463043213, -7.803493976593018, -6.277521133422852, 0.6157276630401611, -1.2810189723968506, -0.056966058909893036, 
368, 3080531462, -128.4937744140625, -7.985783100128174, 21.3001651763916, 1.2610890865325928, -7.838800430297852, -6.272829532623291, 0.41831883788108826, -1.1128616333007812, 0.21517236530780792, 
369, 3080539795, -128.50437927246094, -7.977041244506836, 21.297657012939453, 1.2357966899871826, -7.908326148986816, -6.308685302734375, 0.3725205659866333, -1.3479233980178833, 0.27183103561401367, 
370, 3080548128, -128.51577758789062, -7.969461441040039, 21.292776107788086, 1.2306108474731445, -7.830753803253174, -6.358342170715332, 0.19847191870212555, -1.150309681892395, 0.46398910880088806, 
371, 3080556461, -128.53399658203125, -7.960705757141113, 21.287883758544922, 1.2527415752410889, -7.850266933441162, -6.304601192474365, -0.58062344789505, -1.1271288394927979, 0.4488254487514496, 
372, 3080564794, -128.55526733398438, -7.952763080596924, 21.285259246826172, 1.2106167078018188, -7.951493740081787, -6.312105178833008, -0.9497758150100708, -1.3879585266113281, 0.33207574486732483, 
373, 3080573127, -128.5757293701172, -7.946279525756836, 21.286096572875977, 1.1589608192443848, -7.807771682739258, -6.304544448852539, -0.7514448165893555, -1.4877002239227295, -0.18788041174411774, 
374, 3080581460, -128.60145568847656, -7.936497211456299, 21.287555694580078, 1.1604466438293457, -7.902331352233887, -6.263710021972656, -1.4175171852111816, -1.9072102308273315, 0.1998806744813919, 
375, 3080589793, -128.61923217773438, -7.921457767486572, 21.290300369262695, 1.12563157081604, -8.102740287780762, -6.308575630187988, -0.3993259072303772, -2.3072023391723633, 0.47226250171661377, 
376, 3080598126, -128.62692260742188, -7.903261661529541, 21.295669555664062, 1.1365246772766113, -7.948532581329346, -6.3019914627075195, 0.8125988841056824, -2.899787664413452, 0.6983593106269836, 
377, 3080606459, -128.63702392578125, -7.874754905700684, 21.2984561920166, 1.1502548456192017, -7.909641265869141, -6.355281829833984, 0.5219027996063232, -3.322575807571411, 1.7296395301818848, 
378, 3080614792, -128.6468048095703, -7.841135025024414, 21.302654266357422, 1.199013590812683, -7.9388017654418945, -6.39768123626709, 0.5409085750579834, -3.9451560974121094, 2.2319605350494385, 
379, 3080623125, -128.66329956054688, -7.79923152923584, 21.305465698242188, 1.24521803855896, -7.787587642669678, -6.490471363067627, -0.2432071715593338, -4.330060958862305, 2.980408191680908, 
380, 3080631458, -128.69384765625, -7.753029823303223, 21.307220458984375, 1.2078860998153687, -7.807725429534912, -6.604114532470703, -1.9923264980316162, -4.664660453796387, 3.590130090713501, 
381, 3080639791, -128.74398803710938, -7.705682754516602, 21.31273078918457, 1.226757526397705, -7.780709743499756, -6.643944263458252, -4.239565849304199, -4.992035388946533, 3.2863705158233643, 
382, 3080648124, -128.82687377929688, -7.653626441955566, 21.325061798095703, 1.2289260625839233, -7.694884777069092, -6.662168979644775, -8.105216026306152, -6.093601703643799, 3.3429524898529053, 
383, 3080656457, -128.93380737304688, -7.593151092529297, 21.338712692260742, 1.1333093643188477, -7.890807628631592, -6.758711814880371, -10.923909187316895, -6.7466630935668945, 3.894017219543457, 
384, 3080664790, -129.05276489257812, -7.53135871887207, 21.351444244384766, 1.0937294960021973, -8.008047103881836, -6.797967433929443, -12.428850173950195, -6.880216121673584, 4.202387809753418, 
385, 3080673123, -129.18603515625, -7.456119537353516, 21.356725692749023, 1.0422548055648804, -8.303611755371094, -6.744299411773682, -14.216723442077637, -7.10592794418335, 5.875022888183594, 
386, 3080681456, -129.31346130371094, -7.361781120300293, 21.35508918762207, 1.0059093236923218, -8.642884254455566, -6.719919204711914, -13.671548843383789, -8.049147605895996, 8.283991813659668, 
387, 3080689789, -129.4143524169922, -7.245369911193848, 21.352476119995117, 0.995952844619751, -8.92776107788086, -6.731604099273682, -10.455399513244629, -9.542482376098633, 10.263869285583496, 
388, 3080698122, -129.4804229736328, -7.104361057281494, 21.34902572631836, 0.9528529047966003, -9.082510948181152, -6.820036888122559, -6.334811210632324, -11.470389366149902, 12.719711303710938, 
389, 3080706455, -129.5179443359375, -6.939456462860107, 21.351058959960938, 0.9827858209609985, -8.802228927612305, -6.893056392669678, -2.7828850746154785, -13.699470520019531, 14.380284309387207, 
390, 3080714788, -129.55149841308594, -6.7507853507995605, 21.35605812072754, 0.9638088345527649, -8.682193756103516, -7.034627914428711, -2.3130178451538086, -15.909701347351074, 16.47453498840332, 
391, 3080723121, -129.58395385742188, -6.538972854614258, 21.37039566040039, 0.9277130961418152, -8.555238723754883, -7.112013816833496, -2.00431489944458, -18.431194305419922, 17.768362045288086, 
392, 3080731454, -129.61988830566406, -6.298184394836426, 21.39137077331543, 0.8516349792480469, -8.43891429901123, -7.187615394592285, -2.385711431503296, -21.38511085510254, 20.062685012817383, 
393, 3080739787, -129.66896057128906, -6.027883529663086, 21.413740158081055, 0.7559046745300293, -8.377861976623535, -7.190186977386475, -3.91437029838562, -23.67702293395996, 22.533615112304688, 
394, 3080748120, -129.7257843017578, -5.727041721343994, 21.439855575561523, 0.6876190900802612, -8.582606315612793, -7.177136421203613, -4.8509840965271, -26.49570655822754, 25.17865753173828, 
395, 3080756453, -129.7852783203125, -5.3962860107421875, 21.47110939025879, 0.6217266917228699, -8.597963333129883, -7.268470764160156, -5.08722448348999, -29.173681259155273, 27.387842178344727, 
396, 3080764786, -129.8544158935547, -5.039310932159424, 21.505584716796875, 0.5126255750656128, -8.507994651794434, -7.311665058135986, -6.273295879364014, -31.635478973388672, 29.655790328979492, 
397, 3080773119, -129.93820190429688, -4.652827739715576, 21.537899017333984, 0.4776170551776886, -8.576775550842285, -7.347696781158447, -8.042577743530273, -33.63291549682617, 32.36542892456055, 
398, 3080781452, -130.02468872070312, -4.246899604797363, 21.561017990112305, 0.37982529401779175, -8.734511375427246, -7.375678539276123, -8.515983581542969, -34.45527267456055, 34.94285202026367, 
399, 3080789785, -130.11224365234375, -3.8215596675872803, 21.575727462768555, 0.26783663034439087, -8.616734504699707, -7.374548435211182, -8.69815444946289, -35.12516784667969, 37.185340881347656, 
400, 3080798118, -130.2093963623047, -3.3771417140960693, 21.575061798095703, 0.14920109510421753, -8.726301193237305, -7.396605014801025, -10.016803741455078, -35.37216567993164, 40.202369689941406, 
401, 3080806451, -130.30487060546875, -2.914160966873169, 21.562894821166992, -0.00977984070777893, -8.803205490112305, -7.350033283233643, -9.852288246154785, -35.71029281616211, 42.5994758605957, 
402, 3080814784, -130.40151977539062, -2.4411730766296387, 21.54851531982422, -0.1600647270679474, -8.95242977142334, -7.253978729248047, -10.031715393066406, -36.47584915161133, 43.764617919921875, 
403, 3080823117, -130.49005126953125, -1.9562675952911377, 21.538410186767578, -0.3278760015964508, -9.088733673095703, -7.211869239807129, -8.981581687927246, -37.74412536621094, 44.32658004760742, 
404, 3080831450, -130.56527709960938, -1.4629617929458618, 21.534067153930664, -0.36491283774375916, -8.855072975158691, -7.191447734832764, -7.397670269012451, -39.109500885009766, 44.72850036621094, 
405, 3080839783, -130.63980102539062, -0.9600570797920227, 21.52975082397461, -0.5227680802345276, -8.83351993560791, -7.315145492553711, -7.266013145446777, -39.798858642578125, 45.41069030761719, 
406, 3080848116, -130.71556091308594, -0.4485533535480499, 21.520584106445312, -0.628113329410553, -8.70816707611084, -7.333851337432861, -7.458968162536621, -40.21044158935547, 46.66203689575195, 
407, 3080856449, -130.78721618652344, 0.07858391851186752, 21.502601623535156, -0.6803182363510132, -8.535663604736328, -7.377518177032471, -6.923015594482422, -40.57319641113281, 48.57960891723633, 
408, 3080864782, -130.85984802246094, 0.6159898638725281, 21.47914695739746, -0.7419008612632751, -8.402230262756348, -7.335114479064941, -7.051855087280273, -41.06688690185547, 50.03701400756836, 
409, 3080873115, -130.93414306640625, 1.1651602983474731, 21.450973510742188, -0.8214423060417175, -8.472223281860352, -7.295022010803223, -7.181233882904053, -41.502342224121094, 51.27724075317383, 
410, 3080881448, -131.00636291503906, 1.717424988746643, 21.42384910583496, -0.926913857460022, -8.421850204467773, -7.210821628570557, -6.939486980438232, -42.03445816040039, 51.566741943359375, 
411, 3080889781, -131.0736846923828, 2.276965618133545, 21.395294189453125, -1.0574487447738647, -8.405080795288086, -7.158073425292969, -6.27574348449707, -42.41337585449219, 52.142608642578125, 
412, 3080898114, -131.1318817138672, 2.8360025882720947, 21.36333656311035, -1.080391526222229, -8.457694053649902, -7.1197123527526855, -5.168537616729736, -42.254512786865234, 52.46357727050781, 
413, 3080906447, -131.17799377441406, 3.3945538997650146, 21.324249267578125, -1.104239821434021, -8.30795669555664, -7.105332851409912, -3.592230796813965, -41.49079132080078, 52.79589080810547, 
414, 3080914780, -131.21173095703125, 3.9512717723846436, 21.278152465820312, -1.2060011625289917, -8.138541221618652, -6.937722206115723, -2.050248384475708, -40.88447952270508, 53.30160140991211, 
415, 3080923113, -131.2404022216797, 4.515250205993652, 21.234825134277344, -1.3243765830993652, -8.194840431213379, -6.767518997192383, -1.3751569986343384, -41.610931396484375, 53.560977935791016, 
416, 3080931446, -131.2603759765625, 5.085000514984131, 21.20247459411621, -1.4109587669372559, -8.346902847290039, -6.540380954742432, -0.4249163269996643, -43.21162414550781, 53.348899841308594, 
417, 3080939779, -131.24966430664062, 5.6633429527282715, 21.183109283447266, -1.5012603998184204, -8.365249633789062, -6.477880001068115, 3.18249249458313, -44.928863525390625, 52.94485855102539, 
418, 3080948112, -131.20925903320312, 6.238523483276367, 21.17506217956543, -1.5181654691696167, -8.342525482177734, -6.570556163787842, 6.596218109130859, -45.806156158447266, 51.93833923339844, 
419, 3080956445, -131.14646911621094, 6.809342384338379, 21.16915512084961, -1.4737318754196167, -8.096575736999512, -6.701876640319824, 9.294662475585938, -45.4740104675293, 51.263755798339844, 
420, 3080964778, -131.06854248046875, 7.374263286590576, 21.14984703063965, -1.3101608753204346, -7.560241222381592, -6.697391510009766, 11.28233528137207, -43.87725830078125, 51.9853630065918, 
421, 3080973111, -130.9948272705078, 7.932320594787598, 21.115583419799805, -1.2339409589767456, -7.25576114654541, -6.6163716316223145, 11.066841125488281, -41.79512023925781, 52.43223190307617, 
422, 3080981444, -130.9253387451172, 8.476988792419434, 21.073123931884766, -1.1479250192642212, -7.225558757781982, -6.562155723571777, 10.712695121765137, -40.07456970214844, 52.058963775634766, 
423, 3080989777, -130.86358642578125, 9.008196830749512, 21.034807205200195, -1.1871682405471802, -7.122874736785889, -6.353896141052246, 9.785812377929688, -39.20664978027344, 50.400943756103516, 
424, 3080998110, -130.81219482421875, 9.521474838256836, 21.008258819580078, -1.2296557426452637, -7.073768138885498, -6.218349933624268, 8.326305389404297, -38.93768310546875, 48.04924392700195, 
425, 3081006443, -130.76095581054688, 10.017072677612305, 20.998180389404297, -1.2696983814239502, -7.077727794647217, -6.177262306213379, 8.03171443939209, -38.85750198364258, 45.05210876464844, 
426, 3081014776, -130.7040557861328, 10.494424819946289, 21.006710052490234, -1.3122161626815796, -6.973626136779785, -5.93793249130249, 8.291365623474121, -39.1785774230957, 42.14432144165039, 
427, 3081023109, -130.64549255371094, 10.963238716125488, 21.034114837646484, -1.3807927370071411, -6.861479759216309, -5.850529670715332, 8.09292984008789, -40.031246185302734, 39.80482864379883, 
428, 3081031442, -130.58827209472656, 11.41838550567627, 21.072216033935547, -1.4430620670318604, -6.754552364349365, -5.858072280883789, 7.626876354217529, -39.998573303222656, 37.93341064453125, 
429, 3081039775, -130.5287322998047, 11.857446670532227, 21.112985610961914, -1.4255118370056152, -6.560613632202148, -5.83650016784668, 7.835003852844238, -38.81620407104492, 36.157657623291016, 
430, 3081048108, -130.49630737304688, 12.282586097717285, 21.152177810668945, -1.4764219522476196, -6.243001461029053, -5.795586585998535, 4.551289081573486, -37.67821502685547, 35.19318389892578, 
431, 3081056441, -130.49424743652344, 12.68893051147461, 21.186182022094727, -1.562240719795227, -6.320682525634766, -5.741152286529541, 1.0406957864761353, -35.61190414428711, 33.74107360839844, 
432, 3081064774, -130.4992218017578, 13.066036224365234, 21.214128494262695, -1.663761854171753, -6.34179162979126, -5.733824253082275, 0.30210763216018677, -32.911712646484375, 31.682342529296875, 
433, 3081073107, -130.50613403320312, 13.42398452758789, 21.237581253051758, -1.7463289499282837, -6.196917533874512, -5.59169340133667, 0.20341578125953674, -30.90085792541504, 30.130983352661133, 
434, 3081081440, -130.52110290527344, 13.761266708374023, 21.261470794677734, -1.7454419136047363, -5.771273612976074, -5.550862789154053, -0.8226534724235535, -29.449750900268555, 28.355010986328125, 
435, 3081089773, -130.566162109375, 14.08326530456543, 21.26964569091797, -1.8595013618469238, -6.0211381912231445, -5.541764736175537, -3.963474750518799, -26.763629913330078, 27.991928100585938, 
436, 3081098106, -130.6012725830078, 14.364879608154297, 21.277231216430664, -1.8726325035095215, -6.487499237060547, -5.691232204437256, -2.7926201820373535, -23.69239616394043, 24.48591423034668, 
437, 3081106439, -130.62948608398438, 14.62132453918457, 21.274600982666016, -1.9787253141403198, -6.317268371582031, -5.694643974304199, -1.626326084136963, -20.724496841430664, 22.808509826660156, 
438, 3081114772, -130.66275024414062, 14.848373413085938, 21.272457122802734, -1.9785724878311157, -5.891021728515625, -5.486956596374512, -2.280308485031128, -18.59645652770996, 20.227869033813477, 
439, 3081123105, -130.71852111816406, 15.063350677490234, 21.27360725402832, -1.9675220251083374, -5.876929759979248, -5.5191826820373535, -5.048004627227783, -17.84678077697754, 18.724515914916992, 
440, 3081131438, -130.8023223876953, 15.25401496887207, 21.298398971557617, -2.117908239364624, -6.127104759216309, -5.5926594734191895, -9.186473846435547, -18.149641036987305, 14.849106788635254, 
441, 3081139771, -130.884033203125, 15.417465209960938, 21.334556579589844, -2.284947395324707, -6.225543975830078, -5.637762069702148, -9.271574974060059, -16.92131996154785, 11.354666709899902, 
442, 3081148104, -130.96092224121094, 15.561915397644043, 21.376972198486328, -2.431077718734741, -6.118349552154541, -5.628312110900879, -8.940869331359863, -16.09697723388672, 9.2775297164917, 
443, 3081156437, -131.04649353027344, 15.699995994567871, 21.418195724487305, -2.5021419525146484, -6.139376640319824, -5.754297256469727, -9.91942310333252, -15.394723892211914, 8.630962371826172, 
444, 3081164770, -131.12696838378906, 15.820569038391113, 21.464942932128906, -2.515385866165161, -6.09720516204834, -5.884235858917236, -9.53456974029541, -14.616254806518555, 6.7512102127075195, 
445, 3081173103, -131.22901916503906, 15.933755874633789, 21.496891021728516, -2.630505084991455, -5.942689895629883, -5.824858665466309, -11.612037658691406, -12.64529037475586, 7.050358772277832, 
446, 3081181436, -131.3408660888672, 16.0391788482666, 21.515382766723633, -2.6882851123809814, -5.99862813949585, -5.883137226104736, -12.388355255126953, -10.986461639404297, 7.489285469055176, 
447, 3081189769, -131.47105407714844, 16.13944435119629, 21.526697158813477, -2.684270143508911, -6.161081314086914, -5.852068901062012, -14.314291000366211, -9.864583969116211, 7.416539669036865, 
448, 3081198102, -131.6139373779297, 16.23014259338379, 21.52831268310547, -2.862372636795044, -6.224117279052734, -5.941409587860107, -15.552315711975098, -8.394569396972656, 7.415604591369629, 
449, 3081206435, -131.76214599609375, 16.315088272094727, 21.516502380371094, -2.883765459060669, -6.085659503936768, -5.9440813064575195, -15.702054977416992, -6.689786434173584, 7.771130561828613, 
450, 3081214768, -131.9162139892578, 16.392187118530273, 21.49131965637207, -2.8134512901306152, -6.312856197357178, -6.018928527832031, -15.991559982299805, -5.048720836639404, 8.219341278076172, 
451, 3081223101, -132.05435180664062, 16.461654663085938, 21.468568801879883, -2.822317123413086, -6.691404819488525, -5.969235420227051, -14.115317344665527, -4.557363033294678, 7.199177265167236, 
452, 3081231434, -132.15798950195312, 16.52524185180664, 21.463409423828125, -2.8545632362365723, -6.939878940582275, -5.9854817390441895, -10.614731788635254, -5.711782455444336, 5.450940132141113, 
453, 3081239767, -132.22447204589844, 16.579313278198242, 21.482669830322266, -2.846078634262085, -6.843019485473633, -6.151870250701904, -6.947566509246826, -6.925846576690674, 2.572463274002075, 
454, 3081248100, -132.2753448486328, 16.623048782348633, 21.51133918762207, -2.747284173965454, -6.571431636810303, -6.37491512298584, -5.442026615142822, -7.006006240844727, 1.061594843864441, 
455, 3081256433, -132.3314208984375, 16.65435028076172, 21.540292739868164, -2.6192142963409424, -6.537820816040039, -6.446314334869385, -6.035097599029541, -5.91414737701416, -0.20914024114608765, 
456, 3081264766, -132.385009765625, 16.67066764831543, 21.56180191040039, -2.640578031539917, -6.643194198608398, -6.506409168243408, -5.525810241699219, -4.184264659881592, -0.8281081914901733, 
457, 3081273099, -132.43624877929688, 16.676286697387695, 21.576017379760742, -2.71567440032959, -6.664931774139404, -6.471609115600586, -4.949400424957275, -2.5886130332946777, -1.3503696918487549, 
458, 3081281432, -132.4939422607422, 16.66628646850586, 21.589494705200195, -2.7501723766326904, -6.856022357940674, -6.452241897583008, -5.740893363952637, -1.3689016103744507, -2.539344310760498, 
459, 3081289765, -132.53785705566406, 16.64636993408203, 21.614198684692383, -2.73812198638916, -7.037562370300293, -6.532785892486572, -4.428727149963379, -1.4040699005126953, -4.4250640869140625, 
460, 3081298098, -132.5651092529297, 16.615455627441406, 21.647157669067383, -2.7825143337249756, -6.768739223480225, -6.537350177764893, -2.757270097732544, -1.3209260702133179, -5.905848026275635, 
461, 3081306431, -132.60946655273438, 16.578285217285156, 21.680747985839844, -2.787257194519043, -6.574863910675049, -6.608109474182129, -4.7823052406311035, -0.7547233700752258, -6.640336513519287, 
462, 3081314764, -132.6679229736328, 16.533740997314453, 21.704008102416992, -2.7349531650543213, -6.683152675628662, -6.610856533050537, -6.164526462554932, 0.6168804168701172, -6.354276657104492, 
463, 3081323097, -132.72885131835938, 16.485862731933594, 21.72414779663086, -2.8325390815734863, -6.794652938842773, -6.531672954559326, -6.308299541473389, 1.2634350061416626, -6.5364203453063965, 
464, 3081331430, -132.7870330810547, 16.437440872192383, 21.74726104736328, -2.938532590866089, -6.848538398742676, -6.495382785797119, -6.122673034667969, 0.954348087310791, -6.681293964385986, 
465, 3081339763, -132.85067749023438, 16.384511947631836, 21.773679733276367, -2.9147772789001465, -6.602515697479248, -6.537355899810791, -6.836466312408447, 1.1568799018859863, -7.467012405395508, 
466, 3081348096, -132.935791015625, 16.328332901000977, 21.799104690551758, -2.832334041595459, -6.765142917633057, -6.638637542724609, -9.426383018493652, 1.4072459936141968, -7.540510177612305, 
467, 3081356429, -133.0216827392578, 16.268545150756836, 21.824783325195312, -2.7928388118743896, -6.943922519683838, -6.656007766723633, -9.48043155670166, 1.796864628791809, -8.007997512817383, 
468, 3081364762, -133.110107421875, 16.206050872802734, 21.850799560546875, -2.8445329666137695, -7.134224891662598, -6.660528659820557, -9.837430000305176, 1.8958251476287842, -8.134160041809082, 
469, 3081373095, -133.1929931640625, 16.14299201965332, 21.87945556640625, -2.7790212631225586, -7.292095184326172, -6.750917434692383, -9.209470748901367, 1.8352985382080078, -8.522163391113281, 
470, 3081381428, -133.2698516845703, 16.076093673706055, 21.907026290893555, -2.7130825519561768, -7.299200057983398, -6.812965393066406, -8.495677947998047, 2.14548659324646, -8.635377883911133, 
471, 3081389761, -133.35116577148438, 16.008310317993164, 21.932100296020508, -2.73073673248291, -7.458479881286621, -6.8459792137146, -8.895389556884766, 2.5456838607788086, -8.641783714294434, 
472, 3081398094, -133.43116760253906, 15.936153411865234, 21.958200454711914, -2.6627345085144043, -7.701017379760742, -6.930020332336426, -8.815474510192871, 2.7247018814086914, -8.96880054473877, 
473, 3081406427, -133.49876403808594, 15.855647087097168, 21.99036407470703, -2.596935510635376, -7.799018383026123, -6.981271266937256, -7.476667404174805, 3.020699977874756, -10.304198265075684, 
474, 3081414760, -133.55581665039062, 15.770186424255371, 22.019636154174805, -2.593050479888916, -7.736048698425293, -7.041243553161621, -6.155562400817871, 3.575683355331421, -10.370156288146973, 
475, 3081423093, -133.6034393310547, 15.682093620300293, 22.04348373413086, -2.594312906265259, -7.617664813995361, -7.086429595947266, -4.799006462097168, 4.361605167388916, -10.29308032989502, 
476, 3081431426, -133.6404571533203, 15.588189125061035, 22.064926147460938, -2.549394369125366, -7.696263313293457, -7.145983695983887, -3.4900929927825928, 4.942893981933594, -10.47545337677002, 
477, 3081439759, -133.6647186279297, 15.487560272216797, 22.085796356201172, -2.5597567558288574, -7.6516289710998535, -7.137795448303223, -1.8910224437713623, 5.657968044281006, -11.135560035705566, 
478, 3081448092, -133.6840362548828, 15.377622604370117, 22.11121368408203, -2.588562488555908, -7.606522560119629, -7.068823337554932, -1.4873673915863037, 5.947664260864258, -12.182668685913086, 
479, 3081456425, -133.7003631591797, 15.268980026245117, 22.143177032470703, -2.5484445095062256, -7.596492767333984, -7.067430019378662, -1.279687523841858, 5.3949360847473145, -12.71373176574707, 
480, 3081464758, -133.72169494628906, 15.148571014404297, 22.179311752319336, -2.5356476306915283, -7.8611674308776855, -7.063099384307861, -2.0508806705474854, 5.923715114593506, -13.944366455078125, 
481, 3081473091, -133.7269744873047, 15.024134635925293, 22.214916229248047, -2.4927895069122314, -7.7525506019592285, -7.045833110809326, -0.057273443788290024, 6.404675006866455, -14.372304916381836, 
482, 3081481424, -133.74049377441406, 14.898193359375, 22.25654411315918, -2.401667356491089, -7.762441635131836, -6.917603969573975, -1.2672773599624634, 5.924087047576904, -14.866569519042969, 
483, 3081489757, -133.7559814453125, 14.778427124023438, 22.307640075683594, -2.417267322540283, -7.999475479125977, -6.862994194030762, -1.7422038316726685, 4.717336177825928, -15.207686424255371, 
484, 3081498090, -133.75746154785156, 14.657039642333984, 22.381851196289062, -2.4105396270751953, -7.948530673980713, -6.941123962402344, -0.7945537567138672, 2.816042423248291, -17.086490631103516, 
485, 3081506423, -133.754150390625, 14.537711143493652, 22.474123001098633, -2.343235969543457, -7.714277744293213, -7.035923480987549, -0.7100523114204407, 1.2248857021331787, -18.477985382080078, 
486, 3081514756, -133.7506103515625, 14.416391372680664, 22.57195281982422, -2.290219306945801, -7.628654956817627, -7.209893703460693, -0.8645062446594238, 0.8188487887382507, -18.98786163330078, 
487, 3081523089, -133.74453735351562, 14.284978866577148, 22.670726776123047, -2.20166015625, -7.450362205505371, -7.353277206420898, -0.5284731388092041, 1.6692932844161987, -20.05019187927246, 
488, 3081531422, -133.75103759765625, 14.142189025878906, 22.7615966796875, -2.092813730239868, -7.455382347106934, -7.403348922729492, -1.8110551834106445, 3.176845073699951, -20.297163009643555, 
489, 3081539755, -133.76226806640625, 13.995445251464844, 22.849328994750977, -2.051459550857544, -7.530290603637695, -7.390616416931152, -2.2255706787109375, 3.858696222305298, -20.50289535522461, 
490, 3081548088, -133.77244567871094, 13.848283767700195, 22.93523406982422, -1.9860937595367432, -7.465481758117676, -7.499567985534668, -2.0555171966552734, 3.952700614929199, -20.282793045043945, 
491, 3081556421, -133.78713989257812, 13.691553115844727, 23.009868621826172, -1.8800890445709229, -7.360154151916504, -7.650229454040527, -2.2152223587036133, 5.789575099945068, -20.31432342529297, 
492, 3081564754, -133.80882263183594, 13.520306587219238, 23.05986213684082, -1.8271806240081787, -7.094165325164795, -7.6518096923828125, -2.3652961254119873, 8.976471900939941, -19.477069854736328, 
493, 3081573087, -133.85630798339844, 13.353592872619629, 23.082077026367188, -1.7759556770324707, -6.940495014190674, -7.472525596618652, -4.635217666625977, 11.038074493408203, -16.9398136138916, 
494, 3081581420, -133.91749572753906, 13.196762084960938, 23.081172943115234, -1.8109409809112549, -7.5179901123046875, -7.341214656829834, -5.673823356628418, 12.086463928222656, -14.099474906921387, 
495, 3081589753, -133.9575958251953, 13.054694175720215, 23.07910919189453, -1.8231160640716553, -7.714152812957764, -7.155251502990723, -3.069047212600708, 11.054760932922363, -12.81874942779541, 
496, 3081598086, -133.98239135742188, 12.935629844665527, 23.082843780517578, -1.8545364141464233, -7.6015496253967285, -7.070501804351807, -1.4305808544158936, 8.567642211914062, -11.195394515991211, 
497, 3081606419, -133.9950714111328, 12.840461730957031, 23.08555793762207, -1.9277993440628052, -7.63926887512207, -7.077503681182861, 0.08817701786756516, 6.750926494598389, -9.142668724060059, 
498, 3081614752, -134.00042724609375, 12.765347480773926, 23.089393615722656, -1.954638123512268, -7.331021785736084, -6.834528923034668, 0.901787519454956, 4.901885986328125, -7.405255317687988, 
499, 3081623085, -134.01991271972656, 12.708809852600098, 23.089618682861328, -2.002121925354004, -7.2413434982299805, -6.898036956787109, -0.6609752774238586, 3.7408945560455322, -5.599835395812988, 
500, 3081631418, -134.03433227539062, 12.666358947753906, 23.08595848083496, -2.1644554138183594, -7.448315143585205, -6.810674667358398, 0.012691853567957878, 2.8114826679229736, -3.975022077560425, 
501, 3081639751, -134.0401153564453, 12.640026092529297, 23.074886322021484, -2.1830387115478516, -7.095461368560791, -6.675207138061523, 1.2795591354370117, 2.170192003250122, -2.07279372215271, 
502, 3081648084, -134.04776000976562, 12.631120681762695, 23.052915573120117, -2.1641178131103516, -7.033822059631348, -6.611640453338623, 1.3055833578109741, 1.5560393333435059, 0.412312388420105, 
503, 3081656417, -134.05068969726562, 12.637617111206055, 23.02313995361328, -2.2853832244873047, -7.122603893280029, -6.516258716583252, 2.1115221977233887, 1.008189082145691, 2.286288022994995, 
504, 3081664750, -134.04759216308594, 12.651801109313965, 22.992216110229492, -2.3154971599578857, -6.953560829162598, -6.378177165985107, 2.829514980316162, 0.38212600350379944, 3.1312508583068848, 
505, 3081673083, -134.05917358398438, 12.680227279663086, 22.960697174072266, -2.2907025814056396, -7.122084617614746, -6.199760913848877, 1.1189707517623901, -0.6781625747680664, 4.317266941070557, 
506, 3081681416, -134.0560760498047, 12.71981430053711, 22.9354248046875, -2.3399341106414795, -7.25256872177124, -6.128040313720703, 2.6867153644561768, -2.2147605419158936, 4.862260818481445, 
507, 3081689749, -134.03955078125, 12.773612976074219, 22.916614532470703, -2.4060120582580566, -7.22534704208374, -6.139294624328613, 4.157101154327393, -3.8631908893585205, 5.473417282104492, 
508, 3081698082, -134.0059051513672, 12.831141471862793, 22.898290634155273, -2.3766534328460693, -7.129895210266113, -6.216324329376221, 6.173402786254883, -4.29327917098999, 5.8458733558654785, 
509, 3081706415, -133.9684295654297, 12.888051986694336, 22.88298988342285, -2.30635142326355, -7.095536231994629, -6.221841335296631, 6.581488609313965, -4.409055709838867, 5.4568705558776855, 
510, 3081714748, -133.929931640625, 12.94195556640625, 22.871639251708984, -2.2171196937561035, -6.876518249511719, -6.170966625213623, 6.569949626922607, -4.570002555847168, 4.970801830291748, 
511, 3081723081, -133.9028778076172, 12.995996475219727, 22.86290740966797, -2.1508677005767822, -7.03823709487915, -6.100477695465088, 5.153878688812256, -4.720779895782471, 4.678887844085693, 
512, 3081731414, -133.86378479003906, 13.046648025512695, 22.862770080566406, -2.2561492919921875, -7.233168601989746, -6.064713001251221, 6.343199729919434, -5.2390594482421875, 3.7845678329467773, 
513, 3081739747, -133.79954528808594, 13.096298217773438, 22.873794555664062, -2.2597756385803223, -6.923421382904053, -6.199211120605469, 9.079312324523926, -6.009202480316162, 2.7076425552368164, 
514, 3081748080, -133.73150634765625, 13.13668155670166, 22.89101791381836, -2.0530643463134766, -6.654747486114502, -6.258347511291504, 9.342114448547363, -5.8433756828308105, 1.5006484985351562, 
515, 3081756413, -133.67063903808594, 13.171031951904297, 22.910634994506836, -1.940118670463562, -6.50323486328125, -6.290987491607666, 8.433985710144043, -5.460211753845215, 0.6968224048614502, 
516, 3081764746, -133.6278839111328, 13.20223617553711, 22.922853469848633, -1.9707590341567993, -6.3525238037109375, -6.207144737243652, 6.444094181060791, -4.655669689178467, 1.1168447732925415, 
517, 3081773079, -133.59605407714844, 13.231008529663086, 22.927209854125977, -1.9389694929122925, -6.565513610839844, -6.25039529800415, 5.366502285003662, -3.707378387451172, 1.4510592222213745, 
518, 3081781412, -133.56610107421875, 13.255499839782715, 22.92914581298828, -1.8786067962646484, -6.4633073806762695, -6.195219993591309, 5.189277648925781, -3.2275218963623047, 1.3650978803634644, 
519, 3081789745, -133.54957580566406, 13.283177375793457, 22.931072235107422, -1.8529672622680664, -6.457675457000732, -6.177605628967285, 3.5966227054595947, -3.411316394805908, 1.553247094154358, 
520, 3081798078, -133.54061889648438, 13.306917190551758, 22.93543243408203, -1.7972524166107178, -6.471695899963379, -6.19149112701416, 2.6007797718048096, -3.368349075317383, 1.106471061706543, 
521, 3081806411, -133.53504943847656, 13.329048156738281, 22.936452865600586, -1.828313946723938, -6.29167366027832, -6.226192474365234, 2.3074963092803955, -2.8756589889526367, 1.1468645334243774, 
522, 3081814744, -133.54600524902344, 13.350102424621582, 22.930612564086914, -1.824642300605774, -6.124821186065674, -6.231210708618164, 0.49242088198661804, -2.2846362590789795, 1.692473292350769, 
523, 3081823077, -133.57142639160156, 13.374314308166504, 22.915027618408203, -1.9099876880645752, -6.263390064239502, -6.217718124389648, -0.9517737627029419, -1.6441775560379028, 2.665301561355591, 
524, 3081831410, -133.60592651367188, 13.398764610290527, 22.89022445678711, -1.9926486015319824, -6.2627105712890625, -6.229100704193115, -1.803037166595459, -0.962480366230011, 3.513798475265503, 
525, 3081839743, -133.65130615234375, 13.428329467773438, 22.85396957397461, -2.0765132904052734, -6.118738651275635, -6.166866779327393, -2.769731283187866, -0.3474442958831787, 4.7953948974609375, 
526, 3081848076, -133.71348571777344, 13.460803985595703, 22.813194274902344, -2.080371141433716, -6.398630619049072, -6.176767349243164, -4.677786827087402, -0.2871740162372589, 5.4947404861450195, 
527, 3081856409, -133.77903747558594, 13.496429443359375, 22.777362823486328, -2.1326587200164795, -6.504263877868652, -6.175496578216553, -5.196168422698975, -0.8977149128913879, 5.289596080780029, 
528, 3081864742, -133.84764099121094, 13.534461975097656, 22.749244689941406, -2.170315980911255, -6.62120246887207, -6.173588275909424, -5.7960286140441895, -1.828305959701538, 4.956124305725098, 
529, 3081873075, -133.9131622314453, 13.576850891113281, 22.733455657958984, -2.1834678649902344, -6.757933139801025, -6.203098773956299, -5.746516227722168, -3.1599133014678955, 4.257265567779541, 
530, 3081881408, -133.96743774414062, 13.62116527557373, 22.726064682006836, -2.1860857009887695, -7.030198097229004, -6.310939788818359, -4.660920143127441, -4.104937553405762, 3.816354990005493, 
531, 3081889741, -133.99542236328125, 13.664746284484863, 22.730207443237305, -2.1571695804595947, -7.065550327301025, -6.424681186676025, -1.8064438104629517, -4.944264888763428, 2.7393271923065186, 
532, 3081898074, -134.0150146484375, 13.702126502990723, 22.7393798828125, -2.090705633163452, -6.9224138259887695, -6.516948223114014, -0.9663226008415222, -4.921903133392334, 1.8749490976333618, 
533, 3081906407, -134.02243041992188, 13.734380722045898, 22.74594497680664, -2.0105271339416504, -7.020542621612549, -6.644576072692871, 0.5904209017753601, -4.202989101409912, 1.563454508781433, 
534, 3081914740, -134.022705078125, 13.75568962097168, 22.74729347229004, -1.8743081092834473, -6.7647905349731445, -6.758325099945068, 1.5742636919021606, -2.9273226261138916, 1.1198160648345947, 
535, 3081923073, -134.0349578857422, 13.766979217529297, 22.73734474182129, -1.8254626989364624, -6.77319860458374, -6.923344135284424, 0.48245692253112793, -1.0728777647018433, 1.0949956178665161, 
536, 3081931406, -134.05035400390625, 13.762788772583008, 22.714027404785156, -1.8281235694885254, -6.831186771392822, -6.898867130279541, 0.46475744247436523, 1.266918420791626, 0.9192563891410828, 
537, 3081939739, -134.07281494140625, 13.749889373779297, 22.68132781982422, -1.8032325506210327, -6.963846683502197, -6.822455406188965, -0.09696269035339355, 2.8472273349761963, 0.8516221642494202, 
538, 3081948072, -134.09088134765625, 13.725844383239746, 22.652912139892578, -1.7576590776443481, -7.093455791473389, -6.787091255187988, 0.290900856256485, 3.3507516384124756, -0.3767469823360443, 
539, 3081956405, -134.10194396972656, 13.695855140686035, 22.6278133392334, -1.7673757076263428, -7.21319055557251, -6.8557538986206055, 1.0512593984603882, 3.6359150409698486, -1.2305718660354614, 
540, 3081964738, -134.09466552734375, 13.658343315124512, 22.60807991027832, -1.7921205759048462, -7.140148162841797, -6.883944988250732, 3.0800352096557617, 3.7477469444274902, -2.241617202758789, 
541, 3081973071, -134.07460021972656, 13.614924430847168, 22.58976936340332, -1.8075522184371948, -7.030503749847412, -6.81563138961792, 4.594744682312012, 4.1847639083862305, -2.937004566192627, 
542, 3081981404, -134.04747009277344, 13.566313743591309, 22.574495315551758, -1.8254860639572144, -7.049675941467285, -6.933542251586914, 5.331923961639404, 4.300157070159912, -3.5601999759674072, 
543, 3081989737, -134.01966857910156, 13.50699234008789, 22.5600528717041, -1.9117250442504883, -6.98676061630249, -6.989247798919678, 5.410379886627197, 5.181567668914795, -4.626007556915283, 
544, 3081998070, -133.99783325195312, 13.442453384399414, 22.543865203857422, -1.8217601776123047, -6.6873273849487305, -6.898566722869873, 4.719910144805908, 5.702958583831787, -4.866666793823242, 
545, 3082006403, -133.9814910888672, 13.379400253295898, 22.526092529296875, -1.7894207239151, -6.798973083496094, -6.9985833168029785, 4.122649192810059, 5.771694183349609, -4.678926467895508, 
546, 3082014736, -133.9762725830078, 13.30670166015625, 22.50763511657715, -1.8989346027374268, -7.03333854675293, -6.938999652862549, 2.786867380142212, 6.571959972381592, -5.3885178565979, 
547, 3082023069, -133.96401977539062, 13.232749938964844, 22.49507713317871, -1.9364006519317627, -6.818850040435791, -6.891241550445557, 3.484407663345337, 6.234607696533203, -6.044742584228516, 
548, 3082031402, -133.9644317626953, 13.161518096923828, 22.482818603515625, -1.8940342664718628, -6.77164363861084, -6.897008419036865, 1.9315053224563599, 5.92799186706543, -5.767274856567383, 
549, 3082039735, -133.9697723388672, 13.087675094604492, 22.47072410583496, -1.9386615753173828, -7.029225826263428, -6.958978652954102, 1.3605386018753052, 6.187464714050293, -6.068089008331299, 
550, 3082048068, -133.96983337402344, 13.014575004577637, 22.45872688293457, -2.024860382080078, -6.857969284057617, -6.910802364349365, 1.9639843702316284, 6.061801433563232, -5.950520038604736, 
551, 3082056401, -133.9840087890625, 12.949625968933105, 22.448266983032227, -1.967496395111084, -6.736035346984863, -6.83416223526001, 0.2522873878479004, 5.307896614074707, -5.429961681365967, 
552, 3082064734, -134.00582885742188, 12.88807487487793, 22.436182022094727, -2.0156052112579346, -6.979532718658447, -6.772499084472656, -0.6477839350700378, 5.111691951751709, -4.940678596496582, 
553, 3082073067, -134.02529907226562, 12.833553314208984, 22.425020217895508, -2.113058090209961, -6.805525302886963, -6.766169548034668, -0.3646058142185211, 4.500267505645752, -4.467955112457275, 
554, 3082081400, -134.05357360839844, 12.787663459777832, 22.409284591674805, -2.0064027309417725, -6.731738567352295, -6.777698040008545, -1.327534556388855, 4.113351821899414, -3.2879457473754883, 
555, 3082089733, -134.0820770263672, 12.746474266052246, 22.39043617248535, -2.032392978668213, -6.947469711303711, -6.7621073722839355, -1.2479127645492554, 4.036086559295654, -2.685844659805298, 
556, 3082098066, -134.09988403320312, 12.713658332824707, 22.3704776763916, -2.084852457046509, -6.8440842628479, -6.769889831542969, 0.03667958080768585, 3.381718873977661, -1.8123477697372437, 
557, 3082106399, -134.12271118164062, 12.690240859985352, 22.343563079833984, -2.010418653488159, -6.869811058044434, -6.756403923034668, -0.3581894636154175, 3.229890823364258, -0.4916139841079712, 
558, 3082114732, -134.12940979003906, 12.670619010925293, 22.309463500976562, -1.9513556957244873, -7.164116859436035, -6.830127716064453, 1.7417807579040527, 3.4695377349853516, 0.480202853679657, 
559, 3082123065, -134.11300659179688, 12.653332710266113, 22.26793670654297, -1.9068772792816162, -7.211399555206299, -6.905966758728027, 4.73472785949707, 3.9440419673919678, 1.2269092798233032, 
560, 3082131398, -134.08750915527344, 12.640379905700684, 22.2249755859375, -1.8852604627609253, -7.020012378692627, -6.836628437042236, 5.833219051361084, 3.6578023433685303, 1.7758731842041016, 
561, 3082139731, -134.06951904296875, 12.63225269317627, 22.180198669433594, -1.8435693979263306, -7.043620586395264, -6.769346237182617, 5.010477542877197, 3.4549758434295654, 2.2805888652801514, 
562, 3082148064, -134.04493713378906, 12.628986358642578, 22.13433837890625, -1.922153353691101, -7.248484134674072, -6.790381908416748, 5.798295021057129, 3.0950961112976074, 2.843257188796997, 
563, 3082156397, -134.00717163085938, 12.62758731842041, 22.09100341796875, -1.9920552968978882, -7.013144493103027, -6.735525131225586, 7.346597671508789, 2.7741241455078125, 2.7435150146484375, 
564, 3082164730, -133.97039794921875, 12.6256103515625, 22.047897338867188, -2.0530643463134766, -6.791381359100342, -6.648298263549805, 7.18865966796875, 2.7584736347198486, 2.726353168487549, 
565, 3082173063, -133.9430389404297, 12.631278991699219, 21.998252868652344, -2.104235887527466, -6.687713146209717, -6.563440322875977, 6.259722709655762, 2.719835042953491, 3.8633573055267334, 
566, 3082181396, -133.9203338623047, 12.64107894897461, 21.942218780517578, -2.255476236343384, -6.639938831329346, -6.445633888244629, 5.841801166534424, 2.8724701404571533, 4.790566921234131, 
567, 3082189729, -133.90872192382812, 12.657078742980957, 21.889196395874023, -2.324784755706787, -6.6814680099487305, -6.392222881317139, 4.460616111755371, 2.1482656002044678, 5.023616790771484, 
568, 3082198062, -133.91319274902344, 12.679295539855957, 21.838132858276367, -2.2948825359344482, -6.76984977722168, -6.297224521636963, 2.4503984451293945, 1.4206037521362305, 5.459072113037109, 
569, 3082206395, -133.92230224609375, 12.712491989135742, 21.795564651489258, -2.2403409481048584, -6.724799633026123, -6.340329170227051, 1.7062795162200928, -0.16195881366729736, 5.666112899780273, 
570, 3082214728, -133.93099975585938, 12.750722885131836, 21.7586612701416, -2.2815194129943848, -7.110878944396973, -6.505897045135498, 1.5790023803710938, -1.1086351871490479, 5.692520618438721, 
571, 3082223061, -133.91822814941406, 12.79169750213623, 21.731870651245117, -2.253086805343628, -6.966339111328125, -6.472973346710205, 3.9173004627227783, -2.145115375518799, 5.052267551422119, 
572, 3082231394, -133.90982055664062, 12.833060264587402, 21.70986557006836, -2.151752471923828, -6.7640061378479, -6.538111209869385, 3.2384204864501953, -2.624767780303955, 4.754040241241455, 
573, 3082239727, -133.89630126953125, 12.87531566619873, 21.690073013305664, -2.1756973266601562, -6.948434829711914, -6.600398063659668, 3.822937488555908, -2.839824676513672, 4.596487522125244, 
574, 3082248060, -133.88511657714844, 12.916154861450195, 21.667287826538086, -2.163618803024292, -6.837153911590576, -6.600616455078125, 3.5974040031433105, -2.513063669204712, 4.7701005935668945, 
575, 3082256393, -133.88583374023438, 12.962430953979492, 21.640121459960938, -2.2192559242248535, -6.71606969833374, -6.4300537109375, 2.3167691230773926, -2.5498459339141846, 5.542754173278809, 
576, 3082264726, -133.89564514160156, 13.015660285949707, 21.611112594604492, -2.308682680130005, -6.9515700340271, -6.315077304840088, 1.252471923828125, -3.0217621326446533, 6.346887111663818, 
577, 3082273059, -133.89393615722656, 13.081925392150879, 21.58767318725586, -2.44740629196167, -7.187719821929932, -6.2470383644104, 2.5112195014953613, -4.530043601989746, 6.968915939331055, 
578, 3082281392, -133.88400268554688, 13.160511016845703, 21.57757568359375, -2.5113136768341064, -7.271580696105957, -6.15946626663208, 3.1129109859466553, -6.724761962890625, 7.006429672241211, 
579, 3082289725, -133.8638458251953, 13.251325607299805, 21.581449508666992, -2.5104212760925293, -7.249139308929443, -6.2578020095825195, 3.981233596801758, -8.868776321411133, 6.880662441253662, 
580, 3082298058, -133.83973693847656, 13.350695610046387, 21.59063720703125, -2.3918168544769287, -7.194355010986328, -6.4953932762146, 4.285685062408447, -10.07157039642334, 7.247383117675781, 
581, 3082306391, -133.8164825439453, 13.453900337219238, 21.602434158325195, -2.247260332107544, -6.984560966491699, -6.60701322555542, 4.127414703369141, -10.561083793640137, 7.3183088302612305, 
582, 3082314724, -133.80577087402344, 13.5567045211792, 21.615468978881836, -2.226651430130005, -6.89291524887085, -6.7888994216918945, 2.5667130947113037, -10.6745023727417, 7.240312099456787, 
583, 3082323057, -133.81227111816406, 13.656183242797852, 21.62248992919922, -2.250579595565796, -6.815323829650879, -6.861854553222656, 0.685936450958252, -9.847110748291016, 7.3856987953186035, 
584, 3082331390, -133.84068298339844, 13.74543571472168, 21.625978469848633, -2.22684907913208, -6.741273880004883, -6.8613128662109375, -1.8635122776031494, -8.746826171875, 6.835606575012207, 
585, 3082339723, -133.8955078125, 13.82636833190918, 21.631275177001953, -2.233642339706421, -6.654923915863037, -6.870523452758789, -5.061731815338135, -8.167304039001465, 5.914647579193115, 
586, 3082348056, -133.96636962890625, 13.896174430847168, 21.640193939208984, -2.296912670135498, -6.881704330444336, -6.993968963623047, -7.112970352172852, -7.597745418548584, 4.7035040855407715, 
587, 3082356389, -134.0447998046875, 13.953041076660156, 21.654314041137695, -2.3964176177978516, -6.968912124633789, -7.057629108428955, -8.156137466430664, -6.918021202087402, 3.104688882827759, 
588, 3082364722, -134.13841247558594, 14.000585556030273, 21.677898406982422, -2.3595986366271973, -7.004328727722168, -7.144979476928711, -10.271361351013184, -6.979649066925049, 1.5791306495666504, 
589, 3082373055, -134.2525634765625, 14.039102554321289, 21.70819664001465, -2.2517099380493164, -7.354775905609131, -7.412749767303467, -12.911727905273438, -6.744484901428223, 0.1941174864768982, 
590, 3082381388, -134.37535095214844, 14.062609672546387, 21.743650436401367, -2.1839540004730225, -7.586737155914307, -7.697067737579346, -14.122129440307617, -5.960125923156738, -1.4744068384170532, 
591, 3082389721, -134.5163116455078, 14.063911437988281, 21.787443161010742, -1.9696162939071655, -7.6564717292785645, -8.025107383728027, -16.52459144592285, -4.743500709533691, -4.119077205657959, 
592, 3082398054, -134.6752471923828, 14.038463592529297, 21.835962295532227, -1.6605082750320435, -7.680274486541748, -8.359560012817383, -18.839506149291992, -2.9154646396636963, -6.748379707336426, 
593, 3082406387, -134.84869384765625, 13.98405647277832, 21.881406784057617, -1.6211135387420654, -7.718757152557373, -8.487482070922852, -20.465974807739258, -0.15508145093917847, -9.01924991607666, 
594, 3082414720, -135.0204315185547, 13.90311336517334, 21.915468215942383, -1.6217834949493408, -7.972103595733643, -8.48305892944336, -19.94887351989746, 3.015488386154175, -10.286924362182617, 
595, 3082423053, -135.16676330566406, 13.802985191345215, 21.94167137145996, -1.6262415647506714, -8.096652030944824, -8.475604057312012, -16.639896392822266, 5.353146553039551, -11.299531936645508, 
596, 3082431386, -135.28440856933594, 13.691706657409668, 21.968975067138672, -1.775431513786316, -7.318170070648193, -8.340399742126465, -13.250835418701172, 6.20058012008667, -12.273780822753906, 
597, 3082439719, -135.4403839111328, 13.580199241638184, 21.988353729248047, -1.880666732788086, -6.785586833953857, -8.099583625793457, -17.59114646911621, 6.929537296295166, -11.658119201660156, 
598, 3082448052, -135.62245178222656, 13.480228424072266, 22.00033950805664, -2.0553174018859863, -6.409818649291992, -7.9260993003845215, -20.538145065307617, 6.545350074768066, -10.011176109313965, 
599, 3082456385, -135.84185791015625, 13.39342212677002, 22.000045776367188, -2.163421154022217, -5.593553066253662, -7.977222442626953, -24.647415161132812, 6.4720683097839355, -7.894542694091797, 
600, 3082464718, -136.1734619140625, 13.309165954589844, 21.961410522460938, -2.3775527477264404, -5.661823272705078, -8.006979942321777, -37.076663970947266, 9.371466636657715, -4.388095378875732, 
601, 3082473051, -136.54238891601562, 13.228743553161621, 21.898334503173828, -2.25435471534729, -5.58868932723999, -7.956010818481445, -40.84989929199219, 11.059565544128418, -1.9713257551193237, 
602, 3082481384, -136.9549102783203, 13.157195091247559, 21.814027786254883, -2.1188433170318604, -5.7823662757873535, -7.9257049560546875, -45.55144119262695, 11.96595573425293, 0.6816088557243347, 
603, 3082489717, -137.3796844482422, 13.10159683227539, 21.717945098876953, -2.1853106021881104, -6.165308952331543, -7.912768363952637, -46.6630859375, 11.517169952392578, 3.0526981353759766, 
