PacketCounter,SampleTimeFine,Euler_X,Euler_Y,Euler_Z,Acc_X,Acc_Y,Acc_Z,Gyr_X,Gyr_Y,Gyr_Z,
0, 3152895234, -129.73757934570312, 0.07669109106063843, 24.585214614868164, 0, 0, 0, 0, 0, 0, 
1, 3152903567, -130.12576293945312, -0.2102661281824112, 24.68621063232422, 0.32732492685317993, -7.894571781158447, -6.772350311279297, -44.93479919433594, 11.75362491607666, -34.772220611572266, 
2, 3152911900, -130.47837829589844, -0.4842952489852905, 24.771209716796875, 0.17086456716060638, -8.142038345336914, -6.8683953285217285, -40.60314178466797, 12.455707550048828, -32.2884635925293, 
3, 3152920233, -130.804931640625, -0.7420652508735657, 24.834365844726562, 0.0798717513680458, -8.157942771911621, -7.078702449798584, -37.471168518066406, 13.338654518127441, -28.994430541992188, 
4, 3152928566, -131.1076202392578, -0.9885404109954834, 24.881235122680664, -0.12375062704086304, -8.517895698547363, -6.979304790496826, -34.5903205871582, 14.104748725891113, -26.63460350036621, 
5, 3152936899, -131.39181518554688, -1.228148341178894, 24.93132781982422, -0.15513356029987335, -8.72988224029541, -7.356729984283447, -32.35093688964844, 13.381603240966797, -26.168670654296875, 
6, 3152945232, -131.6536407470703, -1.4583226442337036, 24.99198341369629, -0.6867397427558899, -9.968887329101562, -6.908982276916504, -29.600353240966797, 11.828620910644531, -26.113609313964844, 
7, 3152953565, -131.830322265625, -1.6859025955200195, 25.06232261657715, -0.35309940576553345, -7.552900791168213, -7.954440116882324, -19.33740997314453, 10.826417922973633, -26.58514404296875, 
8, 3152961898, -132.09780883789062, -1.9009144306182861, 25.081470489501953, -0.12357840687036514, -8.232404708862305, -8.109905242919922, -30.377117156982422, 14.509573936462402, -21.33340835571289, 
9, 3152970231, -132.36024475097656, -2.0917680263519287, 25.07356071472168, -0.3243870735168457, -8.043756484985352, -7.883691787719727, -29.8908748626709, 15.0418119430542, -16.911436080932617, 
10, 3152978564, -132.63816833496094, -2.2629315853118896, 25.04414176940918, -0.27965047955513, -8.017870903015137, -7.6798415184021, -31.834238052368164, 15.442123413085938, -13.372783660888672, 
11, 3152986897, -132.89414978027344, -2.415416717529297, 24.998184204101562, -0.35311025381088257, -8.506372451782227, -7.819695949554443, -29.31033706665039, 15.417632102966309, -10.285956382751465, 
12, 3152995230, -133.12371826171875, -2.553943634033203, 24.94810676574707, -0.4804117679595947, -8.324312210083008, -7.732577800750732, -26.160097122192383, 14.695220947265625, -8.670247077941895, 
13, 3153003563, -133.34239196777344, -2.682133674621582, 24.8970890045166, -0.3630901575088501, -8.073564529418945, -7.921188831329346, -24.882043838500977, 13.944334030151367, -7.616013526916504, 
14, 3153011896, -133.57037353515625, -2.7935776710510254, 24.835195541381836, -0.28971317410469055, -7.883021354675293, -7.948999404907227, -26.062530517578125, 13.548596382141113, -5.215907573699951, 
15, 3153020229, -133.8150177001953, -2.8915390968322754, 24.762815475463867, -0.28290629386901855, -7.8169331550598145, -7.983188152313232, -28.153987884521484, 13.347704887390137, -3.1083412170410156, 
16, 3153028562, -134.06979370117188, -2.9768309593200684, 24.68122100830078, -0.28023067116737366, -8.214235305786133, -8.017635345458984, -29.425018310546875, 13.10836410522461, -1.1957759857177734, 
17, 3153036895, -134.31591796875, -3.0505568981170654, 24.590999603271484, -0.3278716802597046, -8.308018684387207, -8.079833984375, -28.465572357177734, 12.877208709716797, 0.5873861312866211, 
18, 3153045228, -134.56752014160156, -3.1136982440948486, 24.49481773376465, -0.3624788820743561, -7.923916339874268, -8.06899642944336, -29.162944793701172, 12.4984769821167, 2.0487563610076904, 
19, 3153053561, -134.81881713867188, -3.1686954498291016, 24.3818359375, -0.3820851743221283, -8.01418685913086, -8.064027786254883, -29.261844635009766, 13.225922584533691, 4.2218194007873535, 
20, 3153061894, -135.0587615966797, -3.2222964763641357, 24.263532638549805, -0.5591405034065247, -7.977005481719971, -7.849921703338623, -27.936830520629883, 13.541322708129883, 4.8482279777526855, 
21, 3153070227, -135.3096923828125, -3.267965316772461, 24.1409912109375, -0.6749266386032104, -7.812484264373779, -7.734128475189209, -29.304683685302734, 13.201523780822754, 5.941829204559326, 
22, 3153078560, -135.57406616210938, -3.295891284942627, 24.01129722595215, -0.7208542227745056, -7.832444667816162, -7.65954065322876, -30.965158462524414, 12.254338264465332, 8.110461235046387, 
23, 3153086893, -135.84303283691406, -3.306623697280884, 23.87323760986328, -0.6685603260993958, -8.10670280456543, -7.658717155456543, -31.592737197875977, 11.441930770874023, 10.32384204864502, 
24, 3153095226, -136.07449340820312, -3.2953736782073975, 23.731395721435547, -0.638319194316864, -8.239542961120605, -7.45710563659668, -27.1060848236084, 9.808147430419922, 12.543699264526367, 
25, 3153103559, -136.2666778564453, -3.2569520473480225, 23.606416702270508, -0.7487422227859497, -8.27053451538086, -7.21215295791626, -22.282243728637695, 6.018439769744873, 13.375185012817383, 
26, 3153111892, -136.39712524414062, -3.1815338134765625, 23.511648178100586, -0.9534443616867065, -8.82400894165039, -7.206412315368652, -14.642088890075684, 0.2585245668888092, 13.851491928100586, 
27, 3153120225, -136.44882202148438, -3.085064172744751, 23.45909309387207, -1.022956371307373, -8.67049503326416, -7.24598503112793, -4.916935443878174, -5.065626621246338, 11.918525695800781, 
28, 3153128558, -136.4729766845703, -2.9693214893341064, 23.43562126159668, -0.8304178714752197, -8.21756362915039, -7.296002388000488, -1.3965907096862793, -9.166412353515625, 10.99722957611084, 
29, 3153136891, -136.4796600341797, -2.837341070175171, 23.423547744750977, -0.6556057333946228, -8.251667976379395, -7.460895538330078, 0.7525335550308228, -11.499588966369629, 11.32575798034668, 
30, 3153145224, -136.4445343017578, -2.6897637844085693, 23.4093017578125, -0.5535666346549988, -8.120664596557617, -7.720843315124512, 5.784656524658203, -12.698336601257324, 12.826241493225098, 
31, 3153153557, -136.39581298828125, -2.535856008529663, 23.39228057861328, -0.5001975297927856, -7.723996639251709, -7.551609992980957, 7.372713565826416, -12.977558135986328, 13.575074195861816, 
32, 3153161890, -136.35052490234375, -2.3696537017822266, 23.380247116088867, -0.4982917606830597, -7.988462448120117, -7.320001602172852, 7.0252838134765625, -14.478351593017578, 14.195352554321289, 
33, 3153170223, -136.27914428710938, -2.192352533340454, 23.39471435546875, -0.5096734166145325, -8.13083553314209, -7.238898754119873, 10.253165245056152, -17.588380813598633, 12.799093246459961, 
34, 3153178556, -136.19509887695312, -2.0171759128570557, 23.445091247558594, -0.6572293639183044, -7.417844295501709, -7.102506160736084, 11.958999633789062, -20.39675521850586, 9.567217826843262, 
35, 3153186889, -136.13043212890625, -1.8318588733673096, 23.50752830505371, -0.5298649072647095, -7.4275712966918945, -7.042235374450684, 9.626604080200195, -22.226394653320312, 9.358704566955566, 
36, 3153195222, -136.06336975097656, -1.6485223770141602, 23.594865798950195, -0.4202873110771179, -7.672579765319824, -7.000432014465332, 10.016555786132812, -24.15199851989746, 7.09791374206543, 
37, 3153203555, -135.98165893554688, -1.467620849609375, 23.709056854248047, -0.32613086700439453, -7.461187362670898, -7.094077110290527, 11.788293838500977, -26.129419326782227, 4.570710182189941, 
38, 3153211888, -135.89340209960938, -1.2881101369857788, 23.8341064453125, -0.22564613819122314, -6.91741943359375, -7.0531697273254395, 12.60503101348877, -26.948511123657227, 3.5912208557128906, 
39, 3153220221, -135.81735229492188, -1.100730538368225, 23.95309829711914, -0.18593302369117737, -7.013121128082275, -7.149167060852051, 11.030766487121582, -27.07370376586914, 4.767543315887451, 
40, 3153228554, -135.73521423339844, -0.9143876433372498, 24.079435348510742, -0.016112016513943672, -6.8251519203186035, -7.147118091583252, 11.77442455291748, -27.63157844543457, 4.123728275299072, 
41, 3153236887, -135.66494750976562, -0.7320659756660461, 24.208940505981445, 0.17234733700752258, -6.3564276695251465, -7.22742223739624, 10.262900352478027, -27.502559661865234, 3.5104973316192627, 
42, 3153245220, -135.61349487304688, -0.5582316517829895, 24.32949447631836, 0.2767726480960846, -6.421475410461426, -7.392509460449219, 7.99173641204834, -26.06439781188965, 3.6322929859161377, 
43, 3153253553, -135.5673828125, -0.3958211839199066, 24.437969207763672, 0.3741895854473114, -6.488353729248047, -7.473672389984131, 7.24744987487793, -24.022977828979492, 3.690552234649658, 
44, 3153261886, -135.49745178222656, -0.2365250289440155, 24.525270462036133, 0.374664843082428, -6.934629440307617, -7.580503463745117, 10.102350234985352, -22.016294479370117, 5.305953502655029, 
45, 3153270219, -135.3783416748047, -0.09120441973209381, 24.585981369018555, 0.3642484247684479, -7.4619460105896, -7.7029128074646, 15.927286148071289, -18.533037185668945, 6.393867015838623, 
46, 3153278552, -135.1992950439453, 0.03550247102975845, 24.642858505249023, 0.4768536388874054, -6.938527584075928, -7.576299667358398, 23.14063262939453, -16.643924713134766, 5.234964370727539, 
47, 3153286885, -135.00738525390625, 0.14918601512908936, 24.68987464904785, 0.624386727809906, -6.66635799407959, -7.461915493011475, 24.636402130126953, -14.637250900268555, 4.9879655838012695, 
48, 3153295218, -134.7836151123047, 0.24815355241298676, 24.727378845214844, 0.5104824900627136, -6.798509120941162, -7.481160640716553, 28.48819351196289, -12.608722686767578, 4.6246418952941895, 
49, 3153303551, -134.53038024902344, 0.3248745799064636, 24.756969451904297, 0.6261397004127502, -6.808885097503662, -7.460238456726074, 31.987768173217773, -9.993147850036621, 3.4084768295288086, 
50, 3153311884, -134.244140625, 0.37216681241989136, 24.773530960083008, 0.7175831198692322, -6.518543720245361, -7.423083782196045, 35.99140167236328, -6.42448091506958, 2.054161787033081, 
51, 3153320217, -133.9322967529297, 0.3936491012573242, 24.773048400878906, 0.7131321430206299, -6.495085716247559, -7.27028751373291, 39.042903900146484, -2.751471757888794, 1.2486697435379028, 
52, 3153328550, -133.5985870361328, 0.3823380470275879, 24.762441635131836, 0.5847352147102356, -6.576091766357422, -7.058407783508301, 41.708412170410156, 0.8229866027832031, -0.7111162543296814, 
53, 3153336883, -133.2723846435547, 0.3473377227783203, 24.741622924804688, 0.5043587684631348, -6.5142412185668945, -6.751888751983643, 40.78196716308594, 3.6995208263397217, -1.9746938943862915, 
54, 3153345216, -132.9524383544922, 0.2866821587085724, 24.71858024597168, 0.3735310733318329, -6.281500339508057, -6.561089038848877, 40.06214141845703, 5.956944465637207, -4.035451889038086, 
55, 3153353549, -132.6632537841797, 0.211287260055542, 24.69863510131836, 0.27167272567749023, -6.332975387573242, -6.453551292419434, 36.341407775878906, 6.898472785949707, -5.65086555480957, 
56, 3153361882, -132.39047241210938, 0.12729007005691528, 24.683773040771484, 0.2354763150215149, -6.309637069702148, -6.401583194732666, 34.39102554321289, 7.091782569885254, -6.834193229675293, 
57, 3153370215, -132.16473388671875, 0.03861277550458908, 24.671409606933594, 0.12283037602901459, -6.148083209991455, -6.295686721801758, 28.721864700317383, 7.249281883239746, -7.515119552612305, 
58, 3153378548, -131.99435424804688, -0.05247550085186958, 24.65961265563965, 0.13789936900138855, -6.022542476654053, -6.235525608062744, 22.097463607788086, 7.341197490692139, -7.774065017700195, 
59, 3153386881, -131.8875732421875, -0.1427280455827713, 24.6494083404541, 0.18534177541732788, -6.200509071350098, -6.274060249328613, 14.444868087768555, 7.14040470123291, -7.875828266143799, 
60, 3153395214, -131.82179260253906, -0.237044095993042, 24.646137237548828, 0.1813250035047531, -6.501416206359863, -6.318609714508057, 9.54214859008789, 6.8091864585876465, -8.779574394226074, 
61, 3153403547, -131.78997802734375, -0.33573052287101746, 24.655994415283203, 0.1882399022579193, -6.524813652038574, -6.270730972290039, 5.462197780609131, 6.000789165496826, -10.253789901733398, 
62, 3153411880, -131.80445861816406, -0.44120216369628906, 24.672351837158203, 0.19388951361179352, -6.6599955558776855, -6.297867774963379, -0.07399953901767731, 5.938955783843994, -11.355408668518066, 
63, 3153420213, -131.8551025390625, -0.5486202836036682, 24.697912216186523, 0.25787779688835144, -6.707139492034912, -6.373187065124512, -4.414268970489502, 5.299023628234863, -12.28880500793457, 
64, 3153428546, -131.9342041015625, -0.6556510329246521, 24.729978561401367, 0.30121472477912903, -6.9320783615112305, -6.468172073364258, -7.801790714263916, 4.676609992980957, -12.74111270904541, 
65, 3153436879, -132.04339599609375, -0.7634021639823914, 24.781970977783203, 0.4053683876991272, -7.059800624847412, -6.447315216064453, -11.38535213470459, 3.0035645961761475, -14.419666290283203, 
66, 3153445212, -132.1755828857422, -0.8782635927200317, 24.844993591308594, 0.45860955119132996, -7.182753086090088, -6.5553507804870605, -14.105753898620605, 2.5965418815612793, -15.908919334411621, 
67, 3153453545, -132.3160858154297, -0.9919331073760986, 24.90827178955078, 0.42883890867233276, -7.337400913238525, -6.81451416015625, -15.096318244934082, 2.5385124683380127, -15.836339950561523, 
68, 3153461878, -132.4601593017578, -1.1094772815704346, 24.963136672973633, 0.3842460811138153, -7.297152519226074, -6.811901092529297, -15.518210411071777, 3.6122872829437256, -15.466907501220703, 
69, 3153470211, -132.6024627685547, -1.2245053052902222, 25.00296401977539, 0.38693007826805115, -7.753628730773926, -6.790441513061523, -15.34131908416748, 4.797509670257568, -14.035120964050293, 
70, 3153478544, -132.71212768554688, -1.3369916677474976, 25.037513732910156, 0.36978089809417725, -8.072123527526855, -6.648849010467529, -11.415959358215332, 5.064024448394775, -13.346888542175293, 
71, 3153486877, -132.78416442871094, -1.4414364099502563, 25.065937042236328, 0.29350411891937256, -8.301937103271484, -6.657559394836426, -6.922582149505615, 4.985978603363037, -12.151703834533691, 
72, 3153495210, -132.81031799316406, -1.5443509817123413, 25.089218139648438, 0.2631584703922272, -8.391819953918457, -6.849186897277832, -1.4150586128234863, 5.306540489196777, -11.5701322555542, 
73, 3153503543, -132.7993621826172, -1.649720311164856, 25.09972381591797, 0.2996807098388672, -8.220322608947754, -7.125746250152588, 2.98573637008667, 6.654745578765869, -10.763947486877441, 
74, 3153511876, -132.7685546875, -1.7561603784561157, 25.087299346923828, 0.3330686688423157, -7.844062805175781, -7.4778666496276855, 5.30244255065918, 8.733521461486816, -8.974077224731445, 
75, 3153520209, -132.75115966796875, -1.8566228151321411, 25.05528450012207, 0.38548195362091064, -7.638092517852783, -7.45695686340332, 3.601938247680664, 9.991128921508789, -6.8756303787231445, 
76, 3153528542, -132.7506866455078, -1.9483813047409058, 25.016111373901367, 0.45394405722618103, -7.5657196044921875, -7.138356685638428, 1.5530552864074707, 9.88795280456543, -5.507752418518066, 
77, 3153536875, -132.7644805908203, -2.034029960632324, 24.9807071685791, 0.3841968774795532, -7.725454330444336, -7.012590408325195, -0.17192277312278748, 9.079107284545898, -5.296973705291748, 
78, 3153545208, -132.77053833007812, -2.122298002243042, 24.954065322875977, 0.26813262701034546, -7.739171504974365, -6.999927997589111, 0.8085773587226868, 8.502172470092773, -6.218829154968262, 
79, 3153553541, -132.76812744140625, -2.2112820148468018, 24.92696189880371, 0.2625739276409149, -7.346328258514404, -7.038318634033203, 1.801077961921692, 8.622943878173828, -6.262041091918945, 
80, 3153561874, -132.76605224609375, -2.3038110733032227, 24.8995361328125, 0.21375754475593567, -7.1059041023254395, -6.928099155426025, 1.7704815864562988, 8.918108940124512, -6.530823230743408, 
81, 3153570207, -132.77589416503906, -2.3997273445129395, 24.873432159423828, 0.2717040181159973, -6.977504253387451, -6.823389053344727, 0.3264150023460388, 9.099392890930176, -6.954341888427734, 
82, 3153578540, -132.78817749023438, -2.492861032485962, 24.841915130615234, 0.25896626710891724, -7.1888508796691895, -6.813115119934082, 0.012794312089681625, 9.328025817871094, -6.2494378089904785, 
83, 3153586873, -132.78567504882812, -2.581960916519165, 24.802783966064453, 0.273179292678833, -7.537210464477539, -6.731091499328613, 1.7307922840118408, 9.691492080688477, -5.293361186981201, 
84, 3153595206, -132.76666259765625, -2.669463634490967, 24.76848602294922, 0.22332407534122467, -7.554627895355225, -6.700657367706299, 3.743072509765625, 9.115300178527832, -5.524145603179932, 
85, 3153603539, -132.73524475097656, -2.757455587387085, 24.735328674316406, 0.237334743142128, -7.5059051513671875, -6.7935380935668945, 5.217710494995117, 9.069221496582031, -5.692431926727295, 
86, 3153611872, -132.6985626220703, -2.8403804302215576, 24.70221519470215, 0.28772616386413574, -7.467131614685059, -6.771200656890869, 5.86048698425293, 8.63215160369873, -5.229518413543701, 
87, 3153620205, -132.66648864746094, -2.919849157333374, 24.674617767333984, 0.35096749663352966, -7.303062915802002, -6.672064781188965, 5.320703983306885, 7.883049964904785, -5.402017116546631, 
88, 3153628538, -132.64662170410156, -2.9930498600006104, 24.651512145996094, 0.31697994470596313, -7.558892250061035, -6.718151092529297, 3.8906874656677246, 6.953485012054443, -5.196130275726318, 
89, 3153636871, -132.63026428222656, -3.064218044281006, 24.642019271850586, 0.34233856201171875, -7.540390968322754, -6.8205413818359375, 3.5371344089508057, 5.607994556427002, -6.146418571472168, 
90, 3153645204, -132.62648010253906, -3.137589454650879, 24.63987922668457, 0.4506486654281616, -7.276636123657227, -6.926933288574219, 2.092644691467285, 5.115201473236084, -6.915639400482178, 
91, 3153653537, -132.646240234375, -3.2116305828094482, 24.633594512939453, 0.5140851736068726, -7.112337112426758, -6.900974273681641, -0.7781605124473572, 5.558712005615234, -6.6640305519104, 
92, 3153661870, -132.68783569335938, -3.286912441253662, 24.621103286743164, 0.5660017132759094, -7.178781032562256, -7.042145252227783, -3.427799940109253, 6.18782377243042, -6.238424777984619, 
93, 3153670203, -132.7451629638672, -3.362945079803467, 24.60317039489746, 0.5274767279624939, -7.354868412017822, -7.025350570678711, -5.367438316345215, 6.757204055786133, -5.881157875061035, 
94, 3153678536, -132.82620239257812, -3.4375832080841064, 24.581262588500977, 0.5596137046813965, -7.313275337219238, -7.1638336181640625, -8.2306489944458, 6.976281642913818, -5.401095390319824, 
95, 3153686869, -132.9368438720703, -3.51184344291687, 24.553199768066406, 0.6415023803710938, -7.205634117126465, -7.222088813781738, -11.843769073486328, 7.513541221618652, -4.878360748291016, 
96, 3153695202, -133.08889770507812, -3.582906723022461, 24.521350860595703, 0.7736519575119019, -7.082592964172363, -7.182043552398682, -16.8332462310791, 7.570891857147217, -4.245151042938232, 
97, 3153703535, -133.2565155029297, -3.6488287448883057, 24.47406768798828, 0.7699116468429565, -7.33985710144043, -7.107855796813965, -18.833011627197266, 8.53054141998291, -2.532390594482422, 
98, 3153711868, -133.4309844970703, -3.713123083114624, 24.426639556884766, 0.6277517676353455, -7.646214485168457, -6.967105388641357, -19.654428482055664, 8.39088249206543, -2.323212146759033, 
99, 3153720201, -133.60304260253906, -3.7833101749420166, 24.384218215942383, 0.5381827354431152, -7.681512832641602, -6.849900245666504, -19.338397979736328, 8.471975326538086, -3.244556427001953, 
100, 3153728534, -133.7644805908203, -3.8585190773010254, 24.35283088684082, 0.47930169105529785, -7.558175563812256, -6.833769798278809, -17.97255516052246, 7.916800022125244, -4.541341781616211, 
101, 3153736867, -133.91139221191406, -3.932372570037842, 24.327781677246094, 0.4334205985069275, -7.607683181762695, -6.8006672859191895, -16.194080352783203, 7.292040824890137, -4.949273109436035, 
102, 3153745200, -134.0298614501953, -4.000711441040039, 24.30841827392578, 0.3050644099712372, -7.6575493812561035, -6.823129653930664, -12.725614547729492, 6.325628280639648, -4.903513431549072, 
103, 3153753533, -134.1399383544922, -4.060762882232666, 24.29391860961914, 0.2986440360546112, -7.598059177398682, -6.825568199157715, -11.693514823913574, 5.249164581298828, -4.60500431060791, 
104, 3153761866, -134.23268127441406, -4.109292984008789, 24.28107452392578, 0.2954700291156769, -7.631605625152588, -6.897136688232422, -9.591046333312988, 4.127286434173584, -3.714397668838501, 
105, 3153770199, -134.31788635253906, -4.147143840789795, 24.279150009155273, 0.27105093002319336, -7.6320390701293945, -6.849768161773682, -8.605205535888672, 2.3254780769348145, -3.7295608520507812, 
106, 3153778532, -134.394287109375, -4.1749372482299805, 24.290966033935547, 0.2379947006702423, -7.575645446777344, -6.866946697235107, -7.4135661125183105, 0.28572678565979004, -3.9842300415039062, 
107, 3153786865, -134.4598846435547, -4.195907115936279, 24.318662643432617, 0.29516080021858215, -7.54412317276001, -6.9099040031433105, -5.998406887054443, -1.6126596927642822, -4.754809379577637, 
108, 3153795198, -134.51815795898438, -4.21408224105835, 24.360511779785156, 0.3331248164176941, -7.319985389709473, -7.018880367279053, -4.972159385681152, -3.080343008041382, -5.676294803619385, 
109, 3153803531, -134.5738525390625, -4.232504367828369, 24.40990447998047, 0.40917715430259705, -7.175837516784668, -7.058295726776123, -4.617363452911377, -3.667356491088867, -6.3631272315979, 
110, 3153811864, -134.63206481933594, -4.2437424659729, 24.462373733520508, 0.46415847539901733, -7.3641767501831055, -7.173418998718262, -4.868792533874512, -4.55932092666626, -5.98021936416626, 
111, 3153820197, -134.6785888671875, -4.254139423370361, 24.514694213867188, 0.516847550868988, -7.584469795227051, -7.287117004394531, -3.4873266220092773, -4.582489013671875, -5.9290032386779785, 
112, 3153828530, -134.7005157470703, -4.262183666229248, 24.56363296508789, 0.5224350690841675, -7.73441219329834, -7.276064395904541, -0.5451221466064453, -4.519349575042725, -5.41554069519043, 
113, 3153836863, -134.6829376220703, -4.268298149108887, 24.60995864868164, 0.5828490257263184, -7.556958198547363, -7.250824928283691, 4.1536688804626465, -4.427062511444092, -5.061885833740234, 
114, 3153845196, -134.64984130859375, -4.2695088386535645, 24.650575637817383, 0.5199207067489624, -7.3224921226501465, -7.164455890655518, 5.986443996429443, -4.390612602233887, -4.131012439727783, 
115, 3153853529, -134.6014404296875, -4.266408443450928, 24.685884475708008, 0.5029618740081787, -7.502128601074219, -7.193155765533447, 7.748832702636719, -4.272915840148926, -3.349266767501831, 
116, 3153861862, -134.53123474121094, -4.264473915100098, 24.72051429748535, 0.5576966404914856, -7.471279621124268, -7.212576866149902, 10.386445045471191, -4.149903297424316, -3.353172540664673, 
117, 3153870195, -134.44883728027344, -4.2594780921936035, 24.751163482666016, 0.5947591066360474, -7.328983306884766, -7.1659674644470215, 11.794307708740234, -4.038558483123779, -2.7867653369903564, 
118, 3153878528, -134.3582305908203, -4.249633312225342, 24.77710723876953, 0.6111006736755371, -7.4870381355285645, -7.15821647644043, 12.755109786987305, -4.079451560974121, -1.9383063316345215, 
119, 3153886861, -134.25482177734375, -4.238334655761719, 24.80015754699707, 0.6148776412010193, -7.530595302581787, -7.155494689941406, 14.241122245788574, -3.9217965602874756, -1.6008645296096802, 
120, 3153895194, -134.1407928466797, -4.225264549255371, 24.813512802124023, 0.6274682879447937, -7.356408596038818, -7.185486793518066, 15.45113468170166, -3.2751646041870117, -0.6012430191040039, 
121, 3153903527, -134.03277587890625, -4.2097930908203125, 24.822742462158203, 0.6289178729057312, -7.199227333068848, -7.158499717712402, 14.673233985900879, -3.08718204498291, -0.08176066726446152, 
122, 3153911860, -133.9375762939453, -4.1927289962768555, 24.823471069335938, 0.5614858269691467, -7.186706066131592, -7.062377452850342, 13.081538200378418, -2.5204410552978516, 0.8034802079200745, 
123, 3153920193, -133.85508728027344, -4.174944877624512, 24.820905685424805, 0.5472695827484131, -7.0993242263793945, -6.994089126586914, 11.50364875793457, -2.2585866451263428, 1.104319453239441, 
124, 3153928526, -133.78123474121094, -4.155640602111816, 24.816669464111328, 0.4915529489517212, -7.169652938842773, -6.897857189178467, 10.476364135742188, -2.2740063667297363, 1.4124585390090942, 
125, 3153936859, -133.7117462158203, -4.136545658111572, 24.819143295288086, 0.41067954897880554, -7.165757179260254, -6.869126796722412, 9.991231918334961, -2.7987143993377686, 0.8028655052185059, 
126, 3153945192, -133.64532470703125, -4.118197917938232, 24.830007553100586, 0.41606009006500244, -7.15647029876709, -6.769824028015137, 9.716134071350098, -3.496164560317993, 0.08433488011360168, 
127, 3153953525, -133.58306884765625, -4.10057258605957, 24.853288650512695, 0.4508214592933655, -7.117743492126465, -6.772182464599609, 9.297289848327637, -4.475883483886719, -1.0390160083770752, 
128, 3153961858, -133.53602600097656, -4.086421966552734, 24.88536834716797, 0.5200481414794922, -7.109420299530029, -6.8271379470825195, 7.572043418884277, -4.98811674118042, -2.0248310565948486, 
129, 3153970191, -133.48855590820312, -4.074761390686035, 24.920406341552734, 0.51060551404953, -7.179869174957275, -6.780601501464844, 7.626908779144287, -5.003485679626465, -2.523540496826172, 
130, 3153978524, -133.44595336914062, -4.067560195922852, 24.962194442749023, 0.5182635188102722, -7.172433853149414, -6.857196807861328, 7.1167497634887695, -5.2599101066589355, -3.424419403076172, 
131, 3153986857, -133.41030883789062, -4.063174247741699, 25.002864837646484, 0.5724059343338013, -6.993324279785156, -6.847850799560547, 6.254970550537109, -4.894214630126953, -3.6125550270080566, 
132, 3153995190, -133.400146484375, -4.059964179992676, 25.03951072692871, 0.6232353448867798, -7.015293121337891, -6.858532905578613, 3.181326389312744, -4.487229824066162, -3.3441689014434814, 
133, 3154003523, -133.4154052734375, -4.058243274688721, 25.079570770263672, 0.6796038150787354, -6.974468231201172, -6.814590930938721, 0.14030197262763977, -4.622550010681152, -3.79569673538208, 
134, 3154011856, -133.44415283203125, -4.0542802810668945, 25.11576271057129, 0.6493993401527405, -7.0761284828186035, -6.8428263664245605, -1.4924774169921875, -4.508066654205322, -3.2438507080078125, 
135, 3154020189, -133.48431396484375, -4.054542541503906, 25.15385627746582, 0.5989611148834229, -7.170304775238037, -6.840727806091309, -2.866706609725952, -4.2840962409973145, -3.8078510761260986, 
136, 3154028522, -133.53099060058594, -4.059145450592041, 25.19693946838379, 0.6928812265396118, -7.0227556228637695, -6.825927257537842, -3.5846357345581055, -4.395992755889893, -4.562280178070068, 
137, 3154036855, -133.57566833496094, -4.066783905029297, 25.237751007080078, 0.7292171120643616, -7.001891136169434, -6.9253010749816895, -3.383755683898926, -3.904723644256592, -4.680373668670654, 
138, 3154045188, -133.63177490234375, -4.077907085418701, 25.277929306030273, 0.6834154725074768, -7.208736419677734, -6.88800048828125, -4.740541458129883, -3.5985565185546875, -4.894585609436035, 
139, 3154053521, -133.68971252441406, -4.095144748687744, 25.3212890625, 0.6802777051925659, -7.357040882110596, -6.970202922821045, -4.951615810394287, -3.3234469890594482, -5.728034496307373, 
140, 3154061854, -133.7380828857422, -4.1157426834106445, 25.366212844848633, 0.7260944247245789, -7.460402965545654, -7.0030131340026855, -3.769519090652466, -3.214151382446289, -6.112966060638428, 
141, 3154070187, -133.7733154296875, -4.1385087966918945, 25.409696578979492, 0.7055436968803406, -7.441771507263184, -7.033150672912598, -2.2167840003967285, -2.865797758102417, -6.222005844116211, 
142, 3154078520, -133.799072265625, -4.16428279876709, 25.451086044311523, 0.7135639786720276, -7.418268203735352, -7.083333969116211, -1.0823167562484741, -2.4703266620635986, -6.271427631378174, 
143, 3154086853, -133.81834411621094, -4.1903300285339355, 25.483829498291016, 0.704824686050415, -7.3078131675720215, -7.089565753936768, -0.39636746048927307, -1.6635035276412964, -5.618622779846191, 
144, 3154095186, -133.83810424804688, -4.219119071960449, 25.507734298706055, 0.7213336825370789, -7.174499034881592, -7.107212543487549, -0.5090316534042358, -0.7060051560401917, -5.084220886230469, 
145, 3154103519, -133.8550567626953, -4.248503684997559, 25.516664505004883, 0.6847043633460999, -7.213703155517578, -7.093425273895264, -0.32422494888305664, 0.6763309836387634, -3.9316818714141846, 
146, 3154111852, -133.8590087890625, -4.281847953796387, 25.51333999633789, 0.6803673505783081, -7.3566670417785645, -7.142487049102783, 1.1469414234161377, 2.0235116481781006, -3.2205288410186768, 
147, 3154120185, -133.85003662109375, -4.3141560554504395, 25.502605438232422, 0.6586733460426331, -7.437341690063477, -7.155140399932861, 2.608412981033325, 2.6158411502838135, -2.5542259216308594, 
148, 3154128518, -133.8224334716797, -4.349062442779541, 25.487939834594727, 0.7056161165237427, -7.365933895111084, -7.152323246002197, 4.833188533782959, 3.1321985721588135, -2.416985034942627, 
149, 3154136851, -133.7832794189453, -4.384480953216553, 25.468109130859375, 0.7494962811470032, -7.310183048248291, -7.158964157104492, 6.148735523223877, 3.656470537185669, -2.074112892150879, 
150, 3154145184, -133.738525390625, -4.422000408172607, 25.440767288208008, 0.8082515001296997, -7.32424783706665, -7.157382011413574, 6.770597457885742, 4.440573215484619, -1.601606845855713, 
151, 3154153517, -133.69264221191406, -4.459424018859863, 25.41202163696289, 0.8177748322486877, -7.397481441497803, -7.17050838470459, 6.873720645904541, 4.595923900604248, -1.5160808563232422, 
152, 3154161850, -133.63751220703125, -4.4985737800598145, 25.37794303894043, 0.8248676061630249, -7.467390060424805, -7.178921699523926, 7.945012092590332, 5.1570048332214355, -1.19521164894104, 
153, 3154170183, -133.5792999267578, -4.5379719734191895, 25.343679428100586, 0.7845404744148254, -7.554228782653809, -7.12679386138916, 8.297974586486816, 5.233564376831055, -1.2456458806991577, 
154, 3154178516, -133.51902770996094, -4.579467296600342, 25.312015533447266, 0.7806275486946106, -7.43550968170166, -7.045579433441162, 8.581626892089844, 5.140226364135742, -1.6103413105010986, 
155, 3154186849, -133.45811462402344, -4.622808933258057, 25.28074073791504, 0.7309187650680542, -7.336169719696045, -7.02544641494751, 8.641694068908691, 5.296934604644775, -1.8478368520736694, 
156, 3154195182, -133.4124298095703, -4.670853614807129, 25.258235931396484, 0.689328670501709, -7.230581283569336, -6.897347450256348, 6.912578105926514, 4.883571624755859, -2.947481155395508, 
157, 3154203515, -133.3793182373047, -4.715192794799805, 25.240516662597656, 0.6374139189720154, -7.232480525970459, -6.887426376342773, 5.435481548309326, 4.198800563812256, -3.0601069927215576, 
158, 3154211848, -133.3504180908203, -4.757165431976318, 25.225067138671875, 0.5668700933456421, -7.296360969543457, -6.828916549682617, 4.967151165008545, 3.766996145248413, -3.0039610862731934, 
159, 3154220181, -133.32615661621094, -4.797844409942627, 25.21514129638672, 0.5382240414619446, -7.203004837036133, -6.797715187072754, 4.445977687835693, 3.216776132583618, -3.3873796463012695, 
160, 3154228514, -133.31736755371094, -4.833648681640625, 25.21319007873535, 0.5876410603523254, -7.103196620941162, -6.7171196937561035, 2.686241626739502, 2.082693338394165, -3.575631856918335, 
161, 3154236847, -133.3258819580078, -4.860840797424316, 25.21640396118164, 0.5549977421760559, -7.224220275878906, -6.749594211578369, 0.6437754034996033, 0.9638765454292297, -3.2886884212493896, 
162, 3154245180, -133.3497772216797, -4.879655838012695, 25.22477912902832, 0.6348907947540283, -7.232086181640625, -6.7706708908081055, -1.1323028802871704, -0.21462169289588928, -2.9408984184265137, 
163, 3154253513, -133.38534545898438, -4.892045974731445, 25.237564086914062, 0.6789025664329529, -7.154591083526611, -6.818355560302734, -2.5024595260620117, -1.0844042301177979, -2.7805018424987793, 
164, 3154261846, -133.4359588623047, -4.900620460510254, 25.25441551208496, 0.6904343366622925, -7.311160564422607, -6.879350185394287, -4.252270698547363, -1.7925868034362793, -2.743130922317505, 
165, 3154270179, -133.49639892578125, -4.907626152038574, 25.276927947998047, 0.7595954537391663, -7.339181423187256, -6.963072299957275, -5.38844108581543, -2.370392322540283, -3.116304397583008, 
166, 3154278512, -133.57467651367188, -4.914210319519043, 25.297672271728516, 0.7382379770278931, -7.32231330871582, -6.973872184753418, -7.529817581176758, -2.2886831760406494, -2.889618396759033, 
167, 3154286845, -133.6607208251953, -4.922575950622559, 25.31390380859375, 0.8041442036628723, -7.402406692504883, -7.05042028427124, -8.526211738586426, -1.7069072723388672, -2.720334529876709, 
168, 3154295178, -133.7535858154297, -4.936977386474609, 25.33220672607422, 0.8070060014724731, -7.479537010192871, -7.032962322235107, -9.304960250854492, -1.4231526851654053, -3.371807098388672, 
169, 3154303511, -133.86314392089844, -4.950347900390625, 25.354110717773438, 0.7933056354522705, -7.395203113555908, -7.062589645385742, -11.283610343933105, -1.7701488733291626, -3.621751070022583, 
170, 3154311844, -133.97439575195312, -4.958376884460449, 25.373273849487305, 0.8036212921142578, -7.347220420837402, -7.03381872177124, -11.50212574005127, -2.018376350402832, -2.8939735889434814, 
171, 3154320177, -134.07492065429688, -4.963784217834473, 25.39426040649414, 0.7371872067451477, -7.483968734741211, -7.010912895202637, -10.212550163269043, -2.344804286956787, -2.863184928894043, 
172, 3154328510, -134.15589904785156, -4.970415115356445, 25.416797637939453, 0.7241652607917786, -7.248597621917725, -7.066834926605225, -7.832283020019531, -2.416280508041382, -3.0586600303649902, 
173, 3154336843, -134.24063110351562, -4.9711174964904785, 25.43765640258789, 0.7646175622940063, -7.064575672149658, -7.000790119171143, -8.319364547729492, -2.7200653553009033, -2.448887825012207, 
174, 3154345176, -134.32321166992188, -4.967316627502441, 25.45390510559082, 0.7570892572402954, -7.1674933433532715, -7.044573783874512, -8.090179443359375, -2.7451541423797607, -1.6402331590652466, 
175, 3154353509, -134.39320373535156, -4.962625503540039, 25.470367431640625, 0.8195144534111023, -7.1187663078308105, -7.051918983459473, -6.594333648681641, -2.792130947113037, -1.6252745389938354, 
176, 3154361842, -134.4440460205078, -4.954224586486816, 25.47585105895996, 0.7558527588844299, -7.114749431610107, -7.103484153747559, -4.3954668045043945, -2.2096760272979736, -0.3509790301322937, 
177, 3154370175, -134.48681640625, -4.939602375030518, 25.473007202148438, 0.6817347407341003, -7.024571418762207, -7.083690643310547, -3.5289883613586426, -1.9797881841659546, 0.8372012376785278, 
178, 3154378508, -134.53213500976562, -4.9209370613098145, 25.456920623779297, 0.7101554274559021, -7.269161224365234, -7.187887191772461, -3.9529809951782227, -1.2326979637145996, 2.335916042327881, 
179, 3154386841, -134.5687255859375, -4.908160209655762, 25.433290481567383, 0.7548784017562866, -7.323011875152588, -7.254025459289551, -3.000079870223999, -0.05418691411614418, 2.4185216426849365, 
180, 3154395174, -134.59107971191406, -4.902069568634033, 25.40166473388672, 0.7580289244651794, -7.207137107849121, -7.164315700531006, -1.3557742834091187, 1.1450332403182983, 2.564676284790039, 
181, 3154403507, -134.607177734375, -4.898663520812988, 25.367408752441406, 0.6481062173843384, -7.369330883026123, -7.096007347106934, -0.6476431488990784, 1.639003872871399, 2.513115406036377, 
182, 3154411840, -134.60633850097656, -4.89944314956665, 25.33823013305664, 0.6741806864738464, -7.29237699508667, -7.0998101234436035, 1.4539024829864502, 1.5137884616851807, 1.7713654041290283, 
183, 3154420173, -134.59732055664062, -4.900861740112305, 25.3089656829834, 0.7290763258934021, -7.230132579803467, -7.0986151695251465, 2.4171900749206543, 1.620049238204956, 1.682547926902771, 
184, 3154428506, -134.5907440185547, -4.901920318603516, 25.286354064941406, 0.697912871837616, -7.333006858825684, -7.06785249710083, 2.2073323726654053, 0.9787198901176453, 1.196620225906372, 
185, 3154436839, -134.5614471435547, -4.905229091644287, 25.26853370666504, 0.7489016652107239, -7.281407356262207, -7.136477470397949, 4.966612815856934, 0.8059647083282471, 0.5586080551147461, 
186, 3154445172, -134.5192108154297, -4.915407180786133, 25.253320693969727, 0.7238720059394836, -7.197477340698242, -7.131963729858398, 6.565837860107422, 1.1180230379104614, -0.20547740161418915, 
187, 3154453505, -134.46791076660156, -4.931214809417725, 25.24111557006836, 0.7662715315818787, -7.051629066467285, -7.0832061767578125, 7.662179946899414, 1.3824132680892944, -0.9845089316368103, 
188, 3154461838, -134.41183471679688, -4.9494524002075195, 25.225502014160156, 0.7745496034622192, -7.100608825683594, -7.070012092590332, 8.218391418457031, 1.8293302059173584, -0.8676565289497375, 
189, 3154470171, -134.35511779785156, -4.967112064361572, 25.207937240600586, 0.7188037633895874, -7.178487777709961, -7.018134593963623, 8.259681701660156, 1.9935944080352783, -0.7017019391059875, 
190, 3154478504, -134.2970733642578, -4.985013484954834, 25.19281005859375, 0.6875230073928833, -7.279850482940674, -7.037956714630127, 8.458883285522461, 1.758455753326416, -0.8846132755279541, 
191, 3154486837, -134.24099731445312, -5.001309871673584, 25.178813934326172, 0.7870460748672485, -7.285813331604004, -7.042456150054932, 8.218570709228516, 1.5746479034423828, -0.8865343332290649, 
192, 3154495170, -134.1923065185547, -5.013214111328125, 25.16725730895996, 0.8053501844406128, -7.234120845794678, -7.0215935707092285, 7.372276782989502, 0.9507876634597778, -0.6712210774421692, 
193, 3154503503, -134.15377807617188, -5.022398471832275, 25.160856246948242, 0.810946524143219, -7.318872451782227, -7.041592597961426, 6.191460609436035, 0.3277469873428345, -0.9160931706428528, 
194, 3154511836, -134.11988830566406, -5.029980182647705, 25.15921974182129, 0.7912262678146362, -7.401484489440918, -7.028443336486816, 5.6992058753967285, -0.2619568109512329, -1.1268470287322998, 
195, 3154520169, -134.09051513671875, -5.033209800720215, 25.164873123168945, 0.7981355786323547, -7.34520959854126, -6.976503849029541, 5.219272136688232, -1.2050729990005493, -1.4070924520492554, 
196, 3154528502, -134.06109619140625, -5.036418914794922, 25.17715835571289, 0.752170979976654, -7.392721652984619, -7.069797039031982, 5.311073303222656, -1.8227345943450928, -1.908696174621582, 
197, 3154536835, -134.03514099121094, -5.038520812988281, 25.18903350830078, 0.7771642208099365, -7.217250823974609, -7.062264442443848, 4.873659133911133, -1.8347734212875366, -1.8267561197280884, 
198, 3154545168, -134.0219268798828, -5.038244247436523, 25.198532104492188, 0.7476353645324707, -7.137763023376465, -6.989015102386475, 3.33561372756958, -1.8748465776443481, -1.375830054283142, 
199, 3154553501, -134.0171661376953, -5.036057949066162, 25.20781135559082, 0.6707131266593933, -7.247155666351318, -6.904300212860107, 2.305959939956665, -1.9678136110305786, -1.238627552986145, 
200, 3154561834, -134.0151824951172, -5.032342910766602, 25.219743728637695, 0.6408311128616333, -7.390416145324707, -6.869266510009766, 2.0153539180755615, -2.3708410263061523, -1.282210350036621, 
201, 3154570167, -134.0026397705078, -5.025559425354004, 25.23542594909668, 0.6628039479255676, -7.284620761871338, -6.956969738006592, 3.303314447402954, -2.902848482131958, -1.3745495080947876, 
202, 3154578500, -133.9857940673828, -5.0217461585998535, 25.24424934387207, 0.715326189994812, -7.2562971115112305, -7.008873462677002, 3.7652416229248047, -2.111727476119995, -1.0136194229125977, 
203, 3154586833, -133.96340942382812, -5.016482830047607, 25.246746063232422, 0.7346646189689636, -7.170064449310303, -6.981807231903076, 4.347401142120361, -1.6393494606018066, -0.41122373938560486, 
204, 3154595166, -133.94932556152344, -5.007485389709473, 25.24720001220703, 0.7551113367080688, -7.29585075378418, -6.9517316818237305, 3.3461666107177734, -1.8239256143569946, 0.12889082729816437, 
205, 3154603499, -133.9331817626953, -4.988781929016113, 25.252788543701172, 0.6929730176925659, -7.524799823760986, -6.91211462020874, 3.6276676654815674, -3.025873899459839, 0.49304842948913574, 
206, 3154611832, -133.9055938720703, -4.965639591217041, 25.26483154296875, 0.6590961217880249, -7.486051082611084, -6.950201511383057, 5.0865254402160645, -3.9995734691619873, 0.39207711815834045, 
207, 3154620165, -133.87289428710938, -4.942021369934082, 25.27945899963379, 0.6759169697761536, -7.389258861541748, -7.04486608505249, 5.709169387817383, -4.212260723114014, 0.1695277988910675, 
208, 3154628498, -133.84352111816406, -4.921532154083252, 25.290971755981445, 0.7212619185447693, -7.2484869956970215, -7.096479892730713, 5.295628070831299, -3.730175495147705, 0.20935796201229095, 
209, 3154636831, -133.8166961669922, -4.903269290924072, 25.29488182067871, 0.7155176401138306, -7.171259880065918, -7.081744194030762, 4.88910436630249, -2.842078447341919, 0.5948777794837952, 
210, 3154645164, -133.80252075195312, -4.89083194732666, 25.29250144958496, 0.724760890007019, -7.146466255187988, -7.09938907623291, 3.328634023666382, -1.8631027936935425, 0.6645485162734985, 
211, 3154653497, -133.80059814453125, -4.880922794342041, 25.285930633544922, 0.7210459113121033, -7.208211421966553, -7.021381378173828, 1.7959803342819214, -1.2407792806625366, 0.7405459880828857, 
212, 3154661830, -133.802734375, -4.872875213623047, 25.274600982666016, 0.716350793838501, -7.278345108032227, -7.0431060791015625, 1.2807629108428955, -0.7268166542053223, 1.0236985683441162, 
213, 3154670163, -133.8060302734375, -4.86309814453125, 25.265138626098633, 0.6737987995147705, -7.179197788238525, -6.940821170806885, 1.1430351734161377, -0.979373037815094, 0.970933198928833, 
214, 3154678496, -133.81105041503906, -4.852739334106445, 25.26141357421875, 0.6436142325401306, -7.156485557556152, -6.903336048126221, 1.0094057321548462, -1.5762615203857422, 0.5927389860153198, 
215, 3154686829, -133.8105010986328, -4.846138000488281, 25.264442443847656, 0.6403414011001587, -7.176365375518799, -6.927599906921387, 1.7305999994277954, -1.793623924255371, -0.3408101797103882, 
216, 3154695162, -133.80206298828125, -4.843000411987305, 25.273178100585938, 0.6948695778846741, -7.027311325073242, -6.937741756439209, 2.7502260208129883, -2.048818826675415, -1.0612618923187256, 
217, 3154703495, -133.80160522460938, -4.84023904800415, 25.28372573852539, 0.6853965520858765, -6.900540351867676, -6.97218132019043, 1.7977607250213623, -2.1214094161987305, -1.2941975593566895, 
218, 3154711828, -133.8084259033203, -4.840085983276367, 25.28889274597168, 0.764050304889679, -6.833359718322754, -7.029784202575684, 0.8863678574562073, -1.4940271377563477, -1.0248256921768188, 
219, 3154720161, -133.8236541748047, -4.837714672088623, 25.286163330078125, 0.7810692191123962, -6.92502498626709, -7.040136337280273, -0.221844881772995, -0.9426806569099426, -0.2296828329563141, 
220, 3154728494, -133.8437042236328, -4.834499835968018, 25.279308319091797, 0.7477512359619141, -7.009707450866699, -6.949080467224121, -0.8246630430221558, -0.7120885252952576, 0.23536920547485352, 
221, 3154736827, -133.87225341796875, -4.823082447052002, 25.269428253173828, 0.6815556287765503, -7.147029399871826, -6.934959888458252, -1.8903816938400269, -1.081919550895691, 1.1437652111053467, 
222, 3154745160, -133.89453125, -4.805633068084717, 25.26073455810547, 0.6316601037979126, -7.232311725616455, -6.859168529510498, -1.1088401079177856, -1.7377978563308716, 1.619062900543213, 
223, 3154753493, -133.9119873046875, -4.778348922729492, 25.254976272583008, 0.599998414516449, -7.3149027824401855, -6.888490200042725, -0.5134373307228088, -2.7580385208129883, 2.174123525619507, 
224, 3154761826, -133.92828369140625, -4.7476091384887695, 25.252628326416016, 0.6296799182891846, -7.295775890350342, -7.019764423370361, -0.3309102952480316, -3.3925540447235107, 2.2402849197387695, 
225, 3154770159, -133.95314025878906, -4.71610164642334, 25.25227165222168, 0.695071280002594, -7.126956462860107, -7.058902740478516, -1.3473856449127197, -3.573262929916382, 2.0891354084014893, 
226, 3154778492, -133.99917602539062, -4.6821064949035645, 25.246963500976562, 0.6846340298652649, -7.10375452041626, -7.169039726257324, -3.9246392250061035, -3.411252975463867, 2.7673492431640625, 
227, 3154786825, -134.05181884765625, -4.648252487182617, 25.238372802734375, 0.7037398815155029, -7.253710746765137, -7.217225551605225, -4.764939308166504, -3.065819025039673, 2.9711360931396484, 
228, 3154795158, -134.1109619140625, -4.614975929260254, 25.23070526123047, 0.650908350944519, -7.338050842285156, -7.187868118286133, -5.520123481750488, -3.154418706893921, 2.8964195251464844, 
229, 3154803491, -134.1728973388672, -4.5788044929504395, 25.222457885742188, 0.6643480062484741, -7.473990440368652, -7.267556190490723, -5.872447967529297, -3.2971668243408203, 3.1384739875793457, 
230, 3154811824, -134.2366943359375, -4.539443016052246, 25.214521408081055, 0.6268306970596313, -7.537612438201904, -7.135429859161377, -6.079898357391357, -3.6473143100738525, 3.43654727935791, 
231, 3154820157, -134.29432678222656, -4.49400520324707, 25.208599090576172, 0.5995067358016968, -7.624391078948975, -7.153000831604004, -5.334972381591797, -4.279768466949463, 3.736323595046997, 
232, 3154828490, -134.33819580078125, -4.445898532867432, 25.198379516601562, 0.6276305913925171, -7.540072441101074, -7.225749492645264, -3.7095556259155273, -4.194458961486816, 4.3748979568481445, 
233, 3154836823, -134.37535095214844, -4.389591217041016, 25.184612274169922, 0.6448794007301331, -7.418290615081787, -7.166365146636963, -2.9475326538085938, -4.525344371795654, 5.317605018615723, 
234, 3154845156, -134.41221618652344, -4.326850414276123, 25.170312881469727, 0.6138193011283875, -7.592804908752441, -7.164824962615967, -2.903693437576294, -5.08023738861084, 5.967117786407471, 
235, 3154853489, -134.43740844726562, -4.261741638183594, 25.16471290588379, 0.6226314902305603, -7.55715799331665, -7.12969970703125, -1.436753511428833, -5.9699859619140625, 5.383561134338379, 
236, 3154861822, -134.46449279785156, -4.195043563842773, 25.16451072692871, 0.6048470139503479, -7.43212890625, -7.119156360626221, -1.59893000125885, -6.623110771179199, 5.120439052581787, 
237, 3154870155, -134.4966278076172, -4.129522800445557, 25.16841697692871, 0.5705946683883667, -7.5114922523498535, -7.199070453643799, -2.1870460510253906, -6.820174217224121, 4.618541240692139, 
238, 3154878488, -134.52281188964844, -4.067019462585449, 25.17120361328125, 0.595882773399353, -7.369551658630371, -7.151888847351074, -1.4667737483978271, -6.531733512878418, 4.504021167755127, 
239, 3154886821, -134.55422973632812, -4.004739761352539, 25.169593811035156, 0.592346727848053, -7.290751934051514, -7.135290622711182, -2.1501359939575195, -6.082638740539551, 4.797252178192139, 
240, 3154895154, -134.58547973632812, -3.944521427154541, 25.164899826049805, 0.533499538898468, -7.249189376831055, -7.10316276550293, -2.1375081539154053, -5.705853462219238, 4.932239532470703, 
241, 3154903487, -134.62109375, -3.8839192390441895, 25.1573543548584, 0.5135425925254822, -7.436579704284668, -7.038594722747803, -2.6982808113098145, -5.441694259643555, 5.1471943855285645, 
242, 3154911820, -134.6435546875, -3.8282878398895264, 25.151622772216797, 0.47703787684440613, -7.533382892608643, -7.007395267486572, -1.089834451675415, -5.236343860626221, 4.62222957611084, 
243, 3154920153, -134.6507568359375, -3.7746384143829346, 25.147647857666016, 0.44381317496299744, -7.365964412689209, -6.978579998016357, 0.7385864853858948, -5.163893222808838, 4.247915744781494, 
244, 3154928486, -134.6499786376953, -3.7218823432922363, 25.141250610351562, 0.4230421781539917, -7.302244186401367, -6.912656784057617, 1.6942921876907349, -4.9403977394104, 4.431865215301514, 
245, 3154936819, -134.64642333984375, -3.670666217803955, 25.137048721313477, 0.4110339879989624, -7.251614570617676, -6.887150764465332, 2.029146671295166, -4.937681198120117, 4.058920860290527, 
246, 3154945152, -134.63783264160156, -3.6219801902770996, 25.133926391601562, 0.39648884534835815, -7.175378799438477, -6.891578197479248, 2.65661883354187, -4.876181602478027, 3.80710768699646, 
247, 3154953485, -134.6246795654297, -3.572976589202881, 25.126731872558594, 0.38082900643348694, -7.105499744415283, -6.836349964141846, 3.156697988510132, -4.4941582679748535, 4.122124195098877, 
248, 3154961818, -134.61436462402344, -3.5242576599121094, 25.117576599121094, 0.4164135754108429, -7.127134323120117, -6.83450984954834, 2.820716142654419, -4.362398624420166, 4.32081413269043, 
249, 3154970151, -134.60394287109375, -3.47961163520813, 25.106578826904297, 0.43665483593940735, -7.217071056365967, -6.875051975250244, 2.8034653663635254, -3.7976181507110596, 4.073496341705322, 
250, 3154978484, -134.58843994140625, -3.441370725631714, 25.094541549682617, 0.4645596146583557, -7.097146987915039, -6.929989337921143, 3.4230732917785645, -3.2306721210479736, 3.6680736541748047, 
251, 3154986817, -134.5746612548828, -3.4120359420776367, 25.08060073852539, 0.5159372687339783, -6.918725490570068, -6.875287055969238, 3.186065196990967, -2.2563581466674805, 3.0123493671417236, 
252, 3154995150, -134.57554626464844, -3.3911421298980713, 25.06705093383789, 0.45841845870018005, -7.065654277801514, -6.811679363250732, 1.4482417106628418, -1.638388991355896, 2.3138234615325928, 
253, 3155003483, -134.5745391845703, -3.3755879402160645, 25.06329917907715, 0.4671801030635834, -7.327521324157715, -6.820742130279541, 1.7260922193527222, -1.965418815612793, 0.9753132462501526, 
254, 3155011816, -134.56582641601562, -3.369133472442627, 25.07102394104004, 0.45353418588638306, -7.38747501373291, -6.822722911834717, 2.7521471977233887, -2.236750602722168, -0.7074267864227295, 
255, 3155020149, -134.54551696777344, -3.3699748516082764, 25.08696746826172, 0.48102468252182007, -7.2070746421813965, -6.847304821014404, 4.17819356918335, -2.266206741333008, -2.0815536975860596, 
256, 3155028482, -134.523681640625, -3.3799519538879395, 25.106624603271484, 0.5242709517478943, -7.143502235412598, -6.879925727844238, 4.410233497619629, -1.8738479614257812, -3.1166250705718994, 
257, 3155036815, -134.49600219726562, -3.3939411640167236, 25.127092361450195, 0.5597973465919495, -7.020564556121826, -6.81948709487915, 5.095106601715088, -1.546600341796875, -3.5850584506988525, 
258, 3155045148, -134.46922302246094, -3.4102087020874023, 25.149343490600586, 0.5381771326065063, -7.131224155426025, -6.8192877769470215, 5.0212225914001465, -1.5687183141708374, -3.8711822032928467, 
259, 3155053481, -134.4422149658203, -3.429570198059082, 25.17729949951172, 0.5907490849494934, -7.068652629852295, -6.84085750579834, 5.071374893188477, -1.7381306886672974, -4.67247200012207, 
260, 3155061814, -134.41845703125, -3.45625901222229, 25.209362030029297, 0.6349248886108398, -6.8551201820373535, -6.837831974029541, 4.732397079467773, -1.5364956855773926, -5.587643146514893, 
261, 3155070147, -134.41241455078125, -3.4801924228668213, 25.243234634399414, 0.654252827167511, -6.876269340515137, -6.837320804595947, 2.5988330841064453, -1.86248779296875, -5.560056209564209, 
262, 3155078480, -134.40740966796875, -3.503887414932251, 25.282535552978516, 0.6672999262809753, -6.960851192474365, -6.809062480926514, 2.539126396179199, -2.4079172611236572, -5.937047004699707, 
263, 3155086813, -134.4048309326172, -3.5265190601348877, 25.32564353942871, 0.6662284731864929, -6.910822868347168, -6.941171169281006, 2.253732681274414, -2.7631616592407227, -6.221621513366699, 
264, 3155095146, -134.40293884277344, -3.5515971183776855, 25.365278244018555, 0.770747184753418, -6.829714298248291, -7.041767597198486, 2.17171573638916, -2.323441505432129, -6.083508491516113, 
265, 3155103479, -134.40866088867188, -3.576557159423828, 25.401851654052734, 0.8395902514457703, -6.710931301116943, -7.039612770080566, 1.218430757522583, -2.006772756576538, -5.8701934814453125, 
266, 3155111812, -134.4241485595703, -3.599984884262085, 25.43065643310547, 0.8134773969650269, -6.825123310089111, -7.099729061126709, 0.007184793706983328, -1.532704472541809, -5.036296844482422, 
267, 3155120145, -134.43894958496094, -3.6220617294311523, 25.454069137573242, 0.8302567005157471, -6.896884441375732, -7.133677005767822, 0.03177446126937866, -1.1234403848648071, -4.520630836486816, 
268, 3155128478, -134.448974609375, -3.640915632247925, 25.4654483795166, 0.8730666637420654, -6.923818588256836, -7.144266605377197, 0.5347099304199219, -0.4236338138580322, -3.1808524131774902, 
269, 3155136811, -134.46246337890625, -3.6570003032684326, 25.467573165893555, 0.86524897813797, -7.023820877075195, -7.206194877624512, 0.027023017406463623, 0.19243976473808289, -2.221689224243164, 
270, 3155145144, -134.47357177734375, -3.6751437187194824, 25.460100173950195, 0.8368266224861145, -7.1682820320129395, -7.268651008605957, 0.26145732402801514, 1.1283199787139893, -1.5380324125289917, 
271, 3155153477, -134.4846649169922, -3.699352264404297, 25.446443557739258, 0.7937089800834656, -7.31389045715332, -7.159484386444092, 0.1976778656244278, 2.222816228866577, -1.5919759273529053, 
272, 3155161810, -134.4939422607422, -3.7264773845672607, 25.43280792236328, 0.7628442049026489, -7.254986763000488, -7.1070733070373535, 0.43142059445381165, 2.4104278087615967, -1.7904222011566162, 
273, 3155170143, -134.50320434570312, -3.750969648361206, 25.416542053222656, 0.7092524766921997, -7.315491199493408, -7.15441370010376, 0.3950483798980713, 2.4701602458953857, -1.39393949508667, 
274, 3155178476, -134.49761962890625, -3.7793943881988525, 25.39760971069336, 0.6181302070617676, -7.2834792137146, -7.15090799331665, 2.17171573638916, 2.9728779792785645, -1.4550421237945557, 
275, 3155186809, -134.4823455810547, -3.8070530891418457, 25.378217697143555, 0.5892533659934998, -7.184238910675049, -7.0549139976501465, 3.3133420944213867, 3.001027822494507, -1.4037882089614868, 
276, 3155195142, -134.4678192138672, -3.8333516120910645, 25.35850715637207, 0.594692051410675, -7.153105735778809, -7.024027347564697, 3.2343482971191406, 2.8609182834625244, -1.2094529867172241, 
277, 3155203475, -134.45306396484375, -3.8566219806671143, 25.33618927001953, 0.5634907484054565, -7.222583770751953, -7.073864936828613, 3.2282261848449707, 2.8819732666015625, -0.7851788401603699, 
278, 3155211808, -134.42942810058594, -3.8796794414520264, 25.311527252197266, 0.5794644355773926, -7.267373085021973, -7.059783458709717, 4.286632061004639, 3.010274648666382, -0.5186626315116882, 
279, 3155220141, -134.4020538330078, -3.9007205963134766, 25.2828426361084, 0.6037870645523071, -7.2558794021606445, -7.11796760559082, 4.687341213226318, 3.239675521850586, -0.06485524773597717, 
280, 3155228474, -134.37405395507812, -3.9225056171417236, 25.247533798217773, 0.6016489863395691, -7.247442245483398, -7.088596343994141, 4.719845771789551, 3.814868927001953, 0.47807690501213074, 
281, 3155236807, -134.35540771484375, -3.9446187019348145, 25.209758758544922, 0.6018599271774292, -7.275979518890381, -7.083240509033203, 3.563682794570923, 4.1078572273254395, 0.5994755029678345, 
282, 3155245140, -134.34910583496094, -3.9680967330932617, 25.17288589477539, 0.5644271969795227, -7.529385566711426, -7.0338239669799805, 2.1021347045898438, 4.091285228729248, 0.4605695903301239, 
283, 3155253473, -134.33871459960938, -3.995894193649292, 25.143369674682617, 0.5286434292793274, -7.631451606750488, -7.009317874908447, 2.6347315311431885, 3.876817226409912, -0.5808925032615662, 
284, 3155261806, -134.32431030273438, -4.028419017791748, 25.125139236450195, 0.5260775685310364, -7.43429708480835, -6.990565776824951, 3.226714849472046, 3.25348162651062, -1.8782919645309448, 
285, 3155270139, -134.3131103515625, -4.0602946281433105, 25.112354278564453, 0.5069072246551514, -7.369963645935059, -7.011317729949951, 2.8663995265960693, 2.787123680114746, -2.3330729007720947, 
286, 3155278472, -134.31192016601562, -4.092513561248779, 25.1058292388916, 0.5128997564315796, -7.260271072387695, -6.976289749145508, 1.739808201789856, 2.224813461303711, -2.8317813873291016, 
287, 3155286805, -134.32081604003906, -4.123566150665283, 25.101362228393555, 0.5206507444381714, -7.216054916381836, -6.926709175109863, 0.5267311930656433, 2.0077459812164307, -2.957996129989624, 
288, 3155295138, -134.32931518554688, -4.151459693908691, 25.0987606048584, 0.47346967458724976, -7.280887603759766, -6.955013275146484, 0.6101823449134827, 1.5266083478927612, -2.7877635955810547, 
289, 3155303471, -134.33253479003906, -4.1778059005737305, 25.094480514526367, 0.46036213636398315, -7.242190361022949, -6.990307331085205, 1.2042533159255981, 1.595510721206665, -2.5705037117004395, 
290, 3155311804, -134.33737182617188, -4.200764179229736, 25.08980369567871, 0.5584513545036316, -7.179233074188232, -6.95980978012085, 1.0327787399291992, 1.2906885147094727, -2.1896071434020996, 
291, 3155320137, -134.33929443359375, -4.219264984130859, 25.086711883544922, 0.5461087226867676, -7.231963634490967, -6.923590183258057, 1.3736274242401123, 0.8399803638458252, -1.9947597980499268, 
292, 3155328470, -134.34097290039062, -4.235024452209473, 25.088777542114258, 0.5427877902984619, -7.138256072998047, -6.924333572387695, 1.4682848453521729, 0.10901418328285217, -2.1369316577911377, 
293, 3155336803, -134.3450164794922, -4.24779748916626, 25.094623565673828, 0.5488781929016113, -7.1904802322387695, -6.9742302894592285, 1.1964408159255981, -0.40807321667671204, -2.2542190551757812, 
294, 3155345136, -134.34727478027344, -4.263131618499756, 25.103195190429688, 0.6228582859039307, -7.18959379196167, -7.068156719207764, 1.45264732837677, -0.48308444023132324, -2.643491506576538, 
295, 3155353469, -134.34832763671875, -4.280291557312012, 25.107378005981445, 0.7042983770370483, -7.056385517120361, -7.097170829772949, 1.5459598302841187, 0.10623504966497421, -2.490267038345337, 
296, 3155361802, -134.35247802734375, -4.298961162567139, 25.108179092407227, 0.7065418362617493, -7.188901901245117, -7.10898494720459, 1.161439061164856, 0.46183744072914124, -2.2799229621887207, 
297, 3155370135, -134.3509063720703, -4.321342945098877, 25.107341766357422, 0.6805118918418884, -7.270774841308594, -7.127493858337402, 1.8114515542984009, 0.9726365804672241, -2.518903970718384, 
298, 3155378468, -134.35313415527344, -4.347904205322266, 25.108539581298828, 0.6763208508491516, -7.199498653411865, -7.088587284088135, 1.3938243389129639, 1.0902442932128906, -2.989706516265869, 
299, 3155386801, -134.3634033203125, -4.375613689422607, 25.112478256225586, 0.6944155097007751, -7.285004138946533, -7.067665100097656, 0.4360952079296112, 1.0099564790725708, -3.375777006149292, 
300, 3155395134, -134.37387084960938, -4.404195308685303, 25.120073318481445, 0.6709813475608826, -7.4129719734191895, -7.0233354568481445, 0.4635535180568695, 0.716058611869812, -3.6973628997802734, 
301, 3155403467, -134.37646484375, -4.43166446685791, 25.13284683227539, 0.6405933499336243, -7.397359848022461, -7.058595657348633, 1.4385340213775635, 0.23563817143440247, -4.092463493347168, 
302, 3155411800, -134.376220703125, -4.460562229156494, 25.146448135375977, 0.6479513645172119, -7.328782081604004, -7.097625255584717, 1.8056625127792358, 0.22631458938121796, -4.228116035461426, 
303, 3155420133, -134.3695068359375, -4.485294342041016, 25.1578426361084, 0.6635883450508118, -7.259605407714844, -7.151466369628906, 2.545606851577759, 0.12511274218559265, -3.742906093597412, 
304, 3155428466, -134.350341796875, -4.509119510650635, 25.161693572998047, 0.7126548290252686, -7.152821063995361, -7.160991191864014, 3.986675977706909, 0.6358221769332886, -2.976182222366333, 
305, 3155436799, -134.33253479003906, -4.529003143310547, 25.162607192993164, 0.6959159970283508, -7.105556964874268, -7.05938720703125, 3.7774596214294434, 0.6126669049263, -2.450552463531494, 
306, 3155445132, -134.31887817382812, -4.545872688293457, 25.161144256591797, 0.6559556126594543, -7.213991641998291, -7.05588960647583, 3.2751643657684326, 0.5051640272140503, -1.9361927509307861, 
307, 3155453465, -134.3001708984375, -4.55932092666626, 25.1623592376709, 0.6585904955863953, -7.272202491760254, -7.057434558868408, 3.8859615325927734, 0.04613124206662178, -1.9258960485458374, 
308, 3155461798, -134.28689575195312, -4.572867393493652, 25.161977767944336, 0.662751317024231, -7.19030237197876, -7.00071907043457, 3.2418909072875977, 0.131631538271904, -1.742984414100647, 
309, 3155470131, -134.28079223632812, -4.584394454956055, 25.15955352783203, 0.7089878916740417, -7.237903594970703, -7.0900397300720215, 2.339719295501709, 0.20067472755908966, -1.4529162645339966, 
310, 3155478464, -134.2758331298828, -4.592916488647461, 25.154064178466797, 0.741054356098175, -7.191714763641357, -7.156455039978027, 2.1932315826416016, 0.14749956130981445, -0.8860731720924377, 
311, 3155486797, -134.27581787109375, -4.600073337554932, 25.145198822021484, 0.753041684627533, -7.158170223236084, -7.1465959548950195, 1.5498533248901367, 0.3847898244857788, -0.5428168773651123, 
312, 3155495130, -134.2832489013672, -4.606860160827637, 25.13555335998535, 0.7238391041755676, -7.235873222351074, -7.122035503387451, 0.6673404574394226, 0.3589450716972351, -0.38869601488113403, 
313, 3155503463, -134.29632568359375, -4.613370895385742, 25.12921142578125, 0.7021301984786987, -7.261079788208008, -7.084518909454346, -0.0013575543416664004, 0.11192139238119125, -0.6995503306388855, 
314, 3155511796, -134.3085174560547, -4.622407913208008, 25.12143898010254, 0.7509410977363586, -7.362483978271484, -7.138715744018555, 0.11418823897838593, 0.3873896896839142, -0.7371647953987122, 
315, 3155520129, -134.31591796875, -4.635435104370117, 25.11009407043457, 0.7837154269218445, -7.3326945304870605, -7.195037841796875, 0.6356556415557861, 1.087721347808838, -0.8401980996131897, 
316, 3155528462, -134.3267059326172, -4.653481483459473, 25.09270477294922, 0.8220831155776978, -7.30214262008667, -7.175635814666748, 0.18528057634830475, 1.966212511062622, -0.7069528698921204, 
317, 3155536795, -134.3408203125, -4.671328544616699, 25.07158088684082, 0.7638006806373596, -7.328599452972412, -7.141947269439697, -0.2656964659690857, 2.3288846015930176, -0.4348016381263733, 
318, 3155545128, -134.35484313964844, -4.691783905029297, 25.051252365112305, 0.7110375165939331, -7.227726459503174, -7.0495452880859375, -0.2307330220937729, 2.4198663234710693, -0.6660981178283691, 
319, 3155553461, -134.37774658203125, -4.710114002227783, 25.032283782958984, 0.647005558013916, -7.209934711456299, -7.005317687988281, -1.3033033609390259, 2.1847786903381348, -0.6561342477798462, 
320, 3155561794, -134.4059295654297, -4.729981422424316, 25.0159912109375, 0.6276058554649353, -7.16948127746582, -6.963708877563477, -1.8935068845748901, 2.023691177368164, -0.9516457915306091, 
321, 3155570127, -134.43698120117188, -4.748729705810547, 25.003826141357422, 0.5985239744186401, -7.065011024475098, -6.943388938903809, -2.2128138542175293, 1.6397593021392822, -1.2567623853683472, 
322, 3155578460, -134.47531127929688, -4.764571189880371, 24.995935440063477, 0.5897559523582458, -7.128526210784912, -6.919329643249512, -3.026577949523926, 0.969972550868988, -1.308042049407959, 
323, 3155586793, -134.5114288330078, -4.776106357574463, 24.996023178100586, 0.580742359161377, -7.193835735321045, -6.955571174621582, -2.6989593505859375, -0.012282026000320911, -1.6627353429794312, 
324, 3155595126, -134.53860473632812, -4.787949085235596, 25.005924224853516, 0.6000158190727234, -7.064389705657959, -6.957401275634766, -1.5150820016860962, -0.8835886120796204, -2.455303907394409, 
325, 3155603459, -134.5748291015625, -4.7953386306762695, 25.0210018157959, 0.6396155953407288, -7.080654621124268, -6.99299430847168, -2.5616025924682617, -1.636339545249939, -2.56608510017395, 
326, 3155611792, -134.6107177734375, -4.802353858947754, 25.039432525634766, 0.670612633228302, -7.152698040008545, -7.04600191116333, -2.472695827484131, -2.0130484104156494, -2.7585251331329346, 
327, 3155620125, -134.63931274414062, -4.809999942779541, 25.058284759521484, 0.6163457036018372, -7.160244941711426, -7.078874111175537, -1.6082793474197388, -1.934220552444458, -2.907407760620117, 
328, 3155628458, -134.6634979248047, -4.817826271057129, 25.076427459716797, 0.6241574883460999, -7.127359390258789, -7.118672847747803, -1.0707262754440308, -1.9182246923446655, -2.802581787109375, 
329, 3155636791, -134.6912841796875, -4.82661771774292, 25.09050941467285, 0.6397866606712341, -7.124072074890137, -7.083341598510742, -1.5574480295181274, -1.426815390586853, -2.604301929473877, 
330, 3155645124, -134.7213134765625, -4.834705829620361, 25.098899841308594, 0.6585065722465515, -7.203305721282959, -7.105021953582764, -1.8695058822631836, -1.0659875869750977, -2.0083863735198975, 
331, 3155653457, -134.74578857421875, -4.84013557434082, 25.099363327026367, 0.6982137560844421, -7.239993095397949, -7.110336780548096, -1.2995766401290894, -0.5528703927993774, -1.1730678081512451, 
332, 3155661790, -134.75650024414062, -4.846958637237549, 25.097620010375977, 0.7032603621482849, -7.422426223754883, -7.063467979431152, 0.347290575504303, -0.3100603222846985, -1.0447789430618286, 
333, 3155670123, -134.75294494628906, -4.853004455566406, 25.099409103393555, 0.704255223274231, -7.57589054107666, -7.098994255065918, 2.079069137573242, -0.6129486560821533, -1.3379852771759033, 
334, 3155678456, -134.73855590820312, -4.862307548522949, 25.103469848632812, 0.7345123887062073, -7.404581546783447, -7.108672618865967, 3.418449878692627, -0.5948265790939331, -1.7480818033218384, 
335, 3155686789, -134.73130798339844, -4.868535995483398, 25.109268188476562, 0.758592426776886, -7.202968597412109, -7.076855659484863, 2.55893874168396, -0.9367252588272095, -1.6889127492904663, 
336, 3155695122, -134.7277374267578, -4.87325382232666, 25.114940643310547, 0.7659340500831604, -7.2640838623046875, -7.165543079376221, 2.1370725631713867, -1.118740200996399, -1.4912736415863037, 
337, 3155703455, -134.72207641601562, -4.876115798950195, 25.11945915222168, 0.692140519618988, -7.204548358917236, -7.172733306884766, 2.3571372032165527, -1.1116578578948975, -1.295337438583374, 
338, 3155711788, -134.72061157226562, -4.879924297332764, 25.119653701782227, 0.6791757941246033, -7.127533435821533, -7.139481067657471, 1.8292661905288696, -0.7304539084434509, -0.9528366923332214, 
339, 3155720121, -134.71902465820312, -4.880465984344482, 25.116849899291992, 0.6761082410812378, -7.173738956451416, -7.135846138000488, 1.7926892042160034, -0.6860644817352295, -0.4824313223361969, 
340, 3155728454, -134.71267700195312, -4.880246639251709, 25.109420776367188, 0.668533444404602, -7.213376998901367, -7.110889434814453, 2.3380801677703857, -0.42232754826545715, 0.034182194620370865, 
341, 3155736787, -134.69717407226562, -4.8769850730896, 25.098302841186523, 0.7153956294059753, -7.199197769165039, -7.0920915603637695, 3.3770580291748047, -0.2999555170536041, 0.5394101738929749, 
342, 3155745120, -134.67886352539062, -4.874433994293213, 25.086864471435547, 0.7328738570213318, -7.176637172698975, -7.1343183517456055, 3.73078989982605, -0.27746617794036865, 0.5705570578575134, 
343, 3155753453, -134.66481018066406, -4.869932651519775, 25.07210922241211, 0.7834814786911011, -7.192380905151367, -7.142681121826172, 3.1686220169067383, -0.09646321088075638, 0.9505571126937866, 
344, 3155761786, -134.65704345703125, -4.865819454193115, 25.059711456298828, 0.8046923875808716, -7.17390251159668, -7.093000411987305, 2.456059455871582, -0.32791340351104736, 0.7817592620849609, 
345, 3155770119, -134.65451049804688, -4.861591815948486, 25.0489501953125, 0.7767688632011414, -7.25609827041626, -7.104595184326172, 1.8268711566925049, -0.4104168713092804, 0.5924187302589417, 
346, 3155778452, -134.64881896972656, -4.860256195068359, 25.04323387145996, 0.7668293118476868, -7.239651203155518, -7.119496822357178, 2.27497935295105, -0.6611930727958679, -0.01722557283937931, 
347, 3155786785, -134.64654541015625, -4.86240816116333, 25.04216957092285, 0.7387627363204956, -7.077927112579346, -7.144528388977051, 1.8943777084350586, -0.6980007290840149, -0.7665444612503052, 
348, 3155795118, -134.65208435058594, -4.867884635925293, 25.041072845458984, 0.7553974390029907, -7.092401504516602, -7.186389923095703, 0.9749417304992676, -0.47954967617988586, -0.9864810109138489, 
349, 3155803451, -134.66343688964844, -4.8750200271606445, 25.040325164794922, 0.7445608973503113, -7.110283374786377, -7.13812255859375, 0.2604839503765106, -0.30434831976890564, -1.2216196060180664, 
350, 3155811784, -134.6754608154297, -4.882335186004639, 25.0382137298584, 0.7473004460334778, -7.128036975860596, -7.119539260864258, 0.186996728181839, -0.2367267608642578, -1.0558444261550903, 
351, 3155820117, -134.68511962890625, -4.886967182159424, 25.032852172851562, 0.7514562010765076, -7.19840669631958, -7.058740139007568, 0.4196508228778839, -0.12550973892211914, -0.6191216707229614, 
352, 3155828450, -134.6920928955078, -4.888444423675537, 25.02684211730957, 0.7108137607574463, -7.232025146484375, -7.048218250274658, 0.7504074573516846, -0.39886489510536194, -0.2322186678647995, 
353, 3155836783, -134.6978302001953, -4.887118816375732, 25.021106719970703, 0.7057921886444092, -7.162477970123291, -7.040879726409912, 0.8867392539978027, -0.5930336117744446, -0.07811061292886734, 
354, 3155845116, -134.70680236816406, -4.884174346923828, 25.015596389770508, 0.6810076832771301, -7.037317276000977, -7.035536766052246, 0.5157554149627686, -0.8161720633506775, 0.10451889038085938, 
355, 3155853449, -134.72525024414062, -4.877836227416992, 25.012357711791992, 0.7022160291671753, -7.002010822296143, -7.090913772583008, -0.6141524910926819, -1.2283306121826172, 0.13799668848514557, 
356, 3155861782, -134.7523651123047, -4.87567138671875, 25.010482788085938, 0.7192730903625488, -6.971792697906494, -7.14456033706665, -1.6200617551803589, -1.0581623315811157, -0.26896223425865173, 
357, 3155870115, -134.79107666015625, -4.8723015785217285, 25.007511138916016, 0.731077253818512, -6.973371982574463, -7.134064197540283, -3.0445973873138428, -1.001529335975647, -0.13461561501026154, 
358, 3155878448, -134.83628845214844, -4.871131896972656, 25.003576278686523, 0.7471241354942322, -7.021306037902832, -7.196863174438477, -3.814445972442627, -0.7996252179145813, -0.1804266721010208, 
359, 3155886781, -134.89068603515625, -4.8679518699646, 24.99483299255371, 0.7782089710235596, -7.062761306762695, -7.200385093688965, -4.986361503601074, -0.49651917815208435, 0.3328057825565338, 
360, 3155895114, -134.94451904296875, -4.862465858459473, 24.98130989074707, 0.7365322709083557, -7.163021087646484, -7.157383441925049, -4.945634365081787, -0.35471874475479126, 0.9973927140235901, 
361, 3155903447, -134.98606872558594, -4.858161449432373, 24.971158981323242, 0.6640839576721191, -7.498255729675293, -7.143930912017822, -3.4544129371643066, -0.4732487201690674, 0.5501554012298584, 
362, 3155911780, -134.99937438964844, -4.858084678649902, 24.969501495361328, 0.6307877898216248, -7.408406734466553, -7.113523960113525, 0.035514138638973236, -0.9009808301925659, -0.4630029499530792, 
363, 3155920113, -135.0049285888672, -4.859310626983643, 24.970918655395508, 0.614886999130249, -7.198692798614502, -7.153336524963379, 0.9809867739677429, -0.9839708209037781, -0.9001609683036804, 
364, 3155928446, -135.01275634765625, -4.86035680770874, 24.966611862182617, 0.6177269816398621, -7.156683921813965, -7.1953020095825195, 0.668544352054596, -0.5824164152145386, -0.33523911237716675, 
365, 3155936779, -135.02316284179688, -4.860332012176514, 24.964365005493164, 0.6274902820587158, -7.0972795486450195, -7.184179782867432, 0.3642728328704834, -0.7791081666946411, -0.48328936100006104, 
366, 3155945112, -135.03321838378906, -4.861902236938477, 24.962135314941406, 0.6174334287643433, -7.177899360656738, -7.101192474365234, 0.41885679960250854, -0.7131259441375732, -0.5547019243240356, 
367, 3155953445, -135.03919982910156, -4.862576007843018, 24.96164321899414, 0.5855317115783691, -7.399444580078125, -7.090434551239014, 0.9108294248580933, -0.8666064739227295, -0.6916099786758423, 
368, 3155961778, -135.0364990234375, -4.861127853393555, 24.963796615600586, 0.6341003179550171, -7.33390998840332, -7.086252689361572, 1.9994856119155884, -1.341110110282898, -0.6727834939956665, 
369, 3155970111, -135.03143310546875, -4.8547892570495605, 24.96644401550293, 0.7103525400161743, -7.281612873077393, -7.072458267211914, 2.2676539421081543, -1.727283239364624, -0.3610454499721527, 
370, 3155978444, -135.0265350341797, -4.842706680297852, 24.971370697021484, 0.7233275771141052, -7.315213680267334, -7.165900230407715, 2.2885806560516357, -2.477908134460449, -0.004341612569987774, 
371, 3155986777, -135.01858520507812, -4.830515384674072, 24.97864532470703, 0.787706732749939, -7.210117340087891, -7.238574504852295, 2.658385992050171, -2.615571975708008, -0.25703883171081543, 
372, 3155995110, -135.01881408691406, -4.818672180175781, 24.98479652404785, 0.7820875644683838, -7.120236873626709, -7.300858497619629, 1.6856600046157837, -2.560655117034912, -0.12643185257911682, 
373, 3156003443, -135.0284881591797, -4.808472156524658, 24.99265480041504, 0.7755542397499084, -6.924569606781006, -7.366598606109619, 0.5513848066329956, -2.4932894706726074, -0.4759637117385864, 
374, 3156011776, -135.05877685546875, -4.79935884475708, 24.996225357055664, 0.7415028214454651, -7.011037826538086, -7.356223106384277, -1.9511003494262695, -2.1113944053649902, -0.1420181393623352, 
375, 3156020109, -135.1017608642578, -4.794641971588135, 24.995872497558594, 0.7043672800064087, -7.018463134765625, -7.345357418060303, -3.526580572128296, -1.335000991821289, -0.24575573205947876, 
376, 3156028442, -135.1584014892578, -4.791013240814209, 24.989482879638672, 0.7641727924346924, -7.0621843338012695, -7.364522457122803, -5.212637424468994, -0.8049401044845581, 0.23759762942790985, 
377, 3156036775, -135.21229553222656, -4.782329082489014, 24.980680465698242, 0.8011482357978821, -6.9992523193359375, -7.316038608551025, -4.919278144836426, -0.9614942669868469, 0.805183470249176, 
378, 3156045108, -135.2632598876953, -4.767552852630615, 24.96881866455078, 0.7986810207366943, -7.198842525482178, -7.273861885070801, -4.585153102874756, -1.29574716091156, 1.6443697214126587, 
379, 3156053441, -135.2987518310547, -4.74776554107666, 24.962268829345703, 0.7562967538833618, -7.237123012542725, -7.3338942527771, -2.6880087852478027, -2.100648880004883, 1.5496994256973267, 
380, 3156061774, -135.3327178955078, -4.725631237030029, 24.956884384155273, 0.8318041563034058, -6.897078037261963, -7.399478435516357, -2.4759485721588135, -2.4712867736816406, 1.715397834777832, 
381, 3156070107, -135.38038635253906, -4.7024149894714355, 24.952716827392578, 0.8898150324821472, -6.831314563751221, -7.536353588104248, -4.127913475036621, -2.5960798263549805, 1.6342779397964478, 
382, 3156078440, -135.44895935058594, -4.685671329498291, 24.953506469726562, 0.8794720768928528, -6.702683925628662, -7.652205944061279, -6.571152687072754, -2.532607316970825, 0.732451856136322, 
383, 3156086773, -135.54287719726562, -4.6738786697387695, 24.95377540588379, 0.8596722483634949, -6.573977470397949, -7.642996311187744, -9.626598358154297, -1.9966297149658203, 0.2918870151042938, 
384, 3156095106, -135.6660919189453, -4.662635326385498, 24.956256866455078, 0.8191663026809692, -6.680976867675781, -7.703047275543213, -13.111133575439453, -2.206256866455078, 0.1219109520316124, 
385, 3156103439, -135.81520080566406, -4.642218112945557, 24.951370239257812, 0.7601407766342163, -6.88456916809082, -7.6112165451049805, -16.300495147705078, -2.3109936714172363, 1.4546456336975098, 
386, 3156111772, -135.97618103027344, -4.601232051849365, 24.944108963012695, 0.6296820640563965, -7.255843162536621, -7.436226844787598, -17.738861083984375, -3.9636502265930176, 3.4347546100616455, 
387, 3156120105, -136.12835693359375, -4.530301570892334, 24.94126319885254, 0.5576940178871155, -7.405557155609131, -7.430100440979004, -16.64488983154297, -6.855766773223877, 5.478835582733154, 
388, 3156128438, -136.27430725097656, -4.432572841644287, 24.94300079345703, 0.5536325573921204, -7.191216945648193, -7.494492053985596, -15.845675468444824, -9.64423656463623, 7.356743812561035, 
389, 3156136771, -136.42489624023438, -4.307386875152588, 24.94317626953125, 0.597284734249115, -7.215605735778809, -7.542401313781738, -16.427156448364258, -11.848869323730469, 9.679200172424316, 
390, 3156145104, -136.58123779296875, -4.156485557556152, 24.942100524902344, 0.5151454210281372, -7.275482177734375, -7.72683048248291, -17.118976593017578, -14.08227825164795, 11.948624610900879, 
391, 3156153437, -136.7417755126953, -3.981295585632324, 24.936656951904297, 0.46385902166366577, -7.194695949554443, -7.783160209655762, -17.66771125793457, -15.806376457214355, 14.228499412536621, 
392, 3156161770, -136.91000366210938, -3.7852225303649902, 24.93082618713379, 0.4344097077846527, -7.393292427062988, -7.909750461578369, -18.58534812927246, -17.717817306518555, 15.9971923828125, 
393, 3156170103, -137.07565307617188, -3.570603370666504, 24.929115295410156, 0.4032624661922455, -7.541652679443359, -8.028603553771973, -18.247608184814453, -19.654600143432617, 17.040908813476562, 
394, 3156178436, -137.2429962158203, -3.3394505977630615, 24.931440353393555, 0.32560253143310547, -7.503033638000488, -8.066662788391113, -18.41537094116211, -21.56548500061035, 18.04715347290039, 
395, 3156186769, -137.4131622314453, -3.0925159454345703, 24.934894561767578, 0.20402583479881287, -7.650330543518066, -8.101784706115723, -18.75432586669922, -23.02693748474121, 19.107561111450195, 
396, 3156195102, -137.5760040283203, -2.8343162536621094, 24.94001007080078, 0.1523675173521042, -7.944552421569824, -8.109021186828613, -17.860389709472656, -24.292644500732422, 19.873735427856445, 
397, 3156203435, -137.7186737060547, -2.5607428550720215, 24.947540283203125, 0.028862392529845238, -8.232964515686035, -8.084056854248047, -15.431827545166016, -25.82804298400879, 20.774564743041992, 
398, 3156211768, -137.8310546875, -2.270998239517212, 24.9488468170166, -0.04335571825504303, -8.266805648803711, -8.11750316619873, -11.830024719238281, -26.889211654663086, 22.64069175720215, 
399, 3156220101, -137.91554260253906, -1.9649871587753296, 24.943492889404297, -0.10516350716352463, -8.2705659866333, -8.104836463928223, -8.521982192993164, -27.760831832885742, 24.431989669799805, 
400, 3156228434, -137.97470092773438, -1.640962839126587, 24.928192138671875, -0.1785300076007843, -8.26856803894043, -8.06768798828125, -5.505210876464844, -28.67754364013672, 26.79939079284668, 
401, 3156236767, -138.01351928710938, -1.300903081893921, 24.90606689453125, -0.33382728695869446, -8.287276268005371, -8.093056678771973, -3.0902082920074463, -29.503498077392578, 28.60275650024414, 
402, 3156245100, -138.04258728027344, -0.947648286819458, 24.878707885742188, -0.47264936566352844, -8.159777641296387, -8.126955032348633, -1.902384877204895, -30.357107162475586, 30.1812744140625, 
403, 3156253433, -138.0713653564453, -0.5783014297485352, 24.84355926513672, -0.5610405206680298, -7.907299518585205, -8.102484703063965, -1.8750290870666504, -31.101354598999023, 32.08390808105469, 
404, 3156261766, -138.10279846191406, -0.1967269331216812, 24.80533790588379, -0.6182242631912231, -7.901988506317139, -8.167264938354492, -2.1515228748321533, -32.04536437988281, 33.393558502197266, 
405, 3156270099, -138.12510681152344, 0.1951499730348587, 24.77182960510254, -0.6651399731636047, -7.781666278839111, -8.152522087097168, -1.0470863580703735, -33.27436447143555, 33.70961380004883, 
406, 3156278432, -138.14697265625, 0.591854989528656, 24.748863220214844, -0.7947744727134705, -7.753053665161133, -8.068768501281738, -0.9542089104652405, -34.65013122558594, 33.21287536621094, 
407, 3156286765, -138.16038513183594, 0.9978369474411011, 24.730199813842773, -0.8765522837638855, -7.817841053009033, -8.157495498657227, 0.051792096346616745, -35.74452209472656, 33.48886489868164, 
408, 3156295098, -138.1564483642578, 1.4112342596054077, 24.71316909790039, -0.9397246837615967, -7.636788845062256, -8.160186767578125, 2.1620001792907715, -36.632476806640625, 34.00482177734375, 
409, 3156303431, -138.151123046875, 1.8381706476211548, 24.694332122802734, -0.968714714050293, -7.432225227355957, -8.027424812316895, 2.3325142860412598, -37.60235595703125, 35.17926025390625, 
410, 3156311764, -138.13954162597656, 2.277010679244995, 24.67209243774414, -1.062713623046875, -7.353813648223877, -8.041295051574707, 3.137470006942749, -38.48088836669922, 36.516536712646484, 
411, 3156320097, -138.1244659423828, 2.728497266769409, 24.640539169311523, -1.1714355945587158, -7.459899425506592, -8.04211139678955, 3.6004745960235596, -38.765289306640625, 38.28969192504883, 
412, 3156328430, -138.10659790039062, 3.192211151123047, 24.60025978088379, -1.261566400527954, -7.401732444763184, -7.971938133239746, 4.040862083435059, -39.242645263671875, 40.13649368286133, 
413, 3156336763, -138.10311889648438, 3.6781222820281982, 24.551538467407227, -1.375349521636963, -7.305520057678223, -7.885626316070557, 2.395745277404785, -40.443359375, 42.59725570678711, 
414, 3156345096, -138.11355590820312, 4.180263042449951, 24.498321533203125, -1.4442214965820312, -7.541987895965576, -7.873221397399902, 0.836627721786499, -41.64040756225586, 44.36829376220703, 
415, 3156353429, -138.11856079101562, 4.694985866546631, 24.440502166748047, -1.4540437459945679, -7.855422496795654, -7.890909671783447, 1.559822678565979, -42.302207946777344, 45.6990966796875, 
416, 3156361762, -138.104248046875, 5.230175018310547, 24.38760757446289, -1.4942796230316162, -7.653581619262695, -7.848339557647705, 3.9175963401794434, -44.62541198730469, 46.9796142578125, 
417, 3156370095, -138.10205078125, 5.788450241088867, 24.33255958557129, -1.4784116744995117, -7.744906902313232, -7.630023002624512, 2.522768974304199, -46.4077033996582, 48.946250915527344, 
418, 3156378428, -138.07078552246094, 6.360098361968994, 24.282737731933594, -1.6389679908752441, -8.126494407653809, -7.734416961669922, 6.034470081329346, -48.11354446411133, 49.639583587646484, 
419, 3156386761, -137.99252319335938, 6.946242332458496, 24.23548126220703, -1.6816540956497192, -7.842895030975342, -7.7537031173706055, 11.670039176940918, -49.463157653808594, 50.53493118286133, 
420, 3156395094, -137.88575744628906, 7.54306697845459, 24.18124771118164, -1.680660367012024, -7.771305084228516, -7.711855888366699, 15.283458709716797, -49.8829345703125, 52.16664505004883, 
421, 3156403427, -137.72882080078125, 8.153203010559082, 24.122419357299805, -1.6818442344665527, -7.621944427490234, -7.69912052154541, 21.41398048400879, -50.480430603027344, 53.66474151611328, 
422, 3156411760, -137.54373168945312, 8.769923210144043, 24.057395935058594, -1.7426522970199585, -7.619863033294678, -7.711440563201904, 25.010711669921875, -50.517852783203125, 54.96337127685547, 
423, 3156420093, -137.33834838867188, 9.390761375427246, 23.995773315429688, -1.8256113529205322, -7.872111797332764, -7.658079624176025, 27.431255340576172, -50.86545181274414, 55.07868957519531, 
424, 3156428426, -137.110107421875, 10.015954971313477, 23.946796417236328, -1.8779820203781128, -7.842077255249023, -7.603095531463623, 30.030763626098633, -52.17218017578125, 54.59616470336914, 
425, 3156436759, -136.8610076904297, 10.643799781799316, 23.92122459411621, -1.8464311361312866, -7.557615756988525, -7.535335540771484, 32.0537223815918, -53.955238342285156, 52.91691970825195, 
426, 3156445092, -136.60247802734375, 11.260268211364746, 23.911775588989258, -1.7667449712753296, -7.237269401550293, -7.659628391265869, 32.892398834228516, -54.14133834838867, 50.9073486328125, 
427, 3156453425, -136.3404083251953, 11.859762191772461, 23.909833908081055, -1.7589812278747559, -6.9112629890441895, -7.466165542602539, 33.10516357421875, -52.931190490722656, 49.02198791503906, 
428, 3156461758, -136.08636474609375, 12.441804885864258, 23.916358947753906, -1.840435266494751, -6.879502296447754, -7.318044662475586, 31.970998764038086, -51.98991775512695, 47.170509338378906, 
429, 3156470091, -135.8194580078125, 13.00607967376709, 23.937223434448242, -1.9169683456420898, -7.116729259490967, -7.258556365966797, 33.0905647277832, -51.29691696166992, 44.635650634765625, 
430, 3156478424, -135.52635192871094, 13.550533294677734, 23.975305557250977, -1.967295527458191, -6.851175785064697, -7.0362019538879395, 35.7753791809082, -50.882564544677734, 41.86106872558594, 
431, 3156486757, -135.22015380859375, 14.08459186553955, 24.02573585510254, -1.9622626304626465, -6.66422176361084, -6.975735664367676, 36.913002014160156, -50.67124938964844, 40.153114318847656, 
432, 3156495090, -134.90550231933594, 14.609878540039062, 24.085615158081055, -1.9454554319381714, -6.639165878295898, -6.797121047973633, 37.63184356689453, -50.57661056518555, 38.986331939697266, 
433, 3156503423, -134.58773803710938, 15.124489784240723, 24.16322898864746, -1.9761544466018677, -6.253689765930176, -6.794572353363037, 37.356048583984375, -50.79985809326172, 36.836612701416016, 
434, 3156511756, -134.298095703125, 15.63137149810791, 24.242504119873047, -1.9249300956726074, -5.976836204528809, -6.703801155090332, 33.8839225769043, -50.17755889892578, 36.39628219604492, 
435, 3156520089, -134.01669311523438, 16.12583351135254, 24.32991600036621, -1.8954557180404663, -6.003437042236328, -6.582127094268799, 32.51349639892578, -49.51100540161133, 34.854774475097656, 
436, 3156528422, -133.74783325195312, 16.61385154724121, 24.423032760620117, -2.0605015754699707, -5.995506763458252, -6.507998943328857, 30.76527976989746, -49.35930633544922, 34.16991424560547, 
437, 3156536755, -133.47067260742188, 17.095752716064453, 24.53529930114746, -2.133019208908081, -5.8341827392578125, -6.464648246765137, 30.97382926940918, -50.16420364379883, 32.295989990234375, 
438, 3156545088, -133.2244110107422, 17.565553665161133, 24.64243507385254, -2.246464252471924, -6.219033718109131, -6.3424482345581055, 27.373661041259766, -48.660560607910156, 31.96505355834961, 
439, 3156553421, -132.96424865722656, 18.02330207824707, 24.758834838867188, -2.2791478633880615, -6.138752460479736, -6.243810176849365, 28.571359634399414, -48.18336486816406, 30.34417724609375, 
440, 3156561754, -132.7160186767578, 18.46988868713379, 24.875917434692383, -2.3792526721954346, -6.197230815887451, -6.1481194496154785, 27.04005241394043, -47.259857177734375, 29.61319351196289, 
441, 3156570087, -132.46820068359375, 18.90464210510254, 24.991193771362305, -2.493030309677124, -6.270231246948242, -6.102083683013916, 26.92934226989746, -45.90239334106445, 28.86109733581543, 
442, 3156578420, -132.22698974609375, 19.321044921875, 25.098859786987305, -2.5086283683776855, -6.24306058883667, -6.015398979187012, 26.368419647216797, -43.718082427978516, 28.098642349243164, 
443, 3156586753, -131.9938507080078, 19.72178077697754, 25.19076919555664, -2.588334560394287, -6.306260585784912, -5.994327068328857, 25.91619110107422, -40.91035461425781, 28.026065826416016, 
444, 3156595086, -131.76112365722656, 20.104915618896484, 25.274492263793945, -2.659630298614502, -5.945547580718994, -5.87080717086792, 26.157161712646484, -38.76156234741211, 27.318771362304688, 
445, 3156603419, -131.54229736328125, 20.469776153564453, 25.35283851623535, -2.667466878890991, -6.071064472198486, -5.951567649841309, 24.624174118041992, -36.63926315307617, 26.17514419555664, 
446, 3156611752, -131.3172149658203, 20.807735443115234, 25.422534942626953, -2.65539288520813, -5.974349498748779, -5.998850345611572, 25.714927673339844, -33.74058532714844, 24.61960792541504, 
447, 3156620085, -131.0922393798828, 21.125186920166016, 25.474390029907227, -2.668976068496704, -5.909298419952393, -5.980936527252197, 26.399274826049805, -30.42173194885254, 24.15589714050293, 
448, 3156628418, -130.86610412597656, 21.41121482849121, 25.51264190673828, -2.715257167816162, -6.123312950134277, -6.016948699951172, 27.12359619140625, -26.775297164916992, 22.49835205078125, 
449, 3156636751, -130.6379852294922, 21.663198471069336, 25.533084869384766, -2.6796469688415527, -6.081687927246094, -6.0468831062316895, 28.104984283447266, -22.427080154418945, 20.7405948638916, 
450, 3156645084, -130.41795349121094, 21.88018226623535, 25.531837463378906, -2.8082504272460938, -6.293054103851318, -5.8851399421691895, 28.108531951904297, -17.850929260253906, 19.270633697509766, 
451, 3156653417, -130.1949920654297, 22.06540870666504, 25.508342742919922, -2.7979819774627686, -6.322481155395508, -5.750464916229248, 29.446533203125, -13.34736442565918, 17.96718978881836, 
452, 3156661750, -129.98678588867188, 22.220008850097656, 25.461471557617188, -2.9382152557373047, -6.403161525726318, -5.622896671295166, 28.757553100585938, -8.997265815734863, 16.938491821289062, 
453, 3156670083, -129.7926025390625, 22.34921646118164, 25.397354125976562, -3.067850112915039, -6.4007744789123535, -5.409954071044922, 27.856529235839844, -5.447653293609619, 15.787884712219238, 
454, 3156678416, -129.6154327392578, 22.458932876586914, 25.324703216552734, -3.1752045154571533, -6.632843017578125, -5.287162780761719, 26.23299217224121, -3.244852304458618, 14.668976783752441, 
455, 3156686749, -129.42636108398438, 22.552162170410156, 25.26263999938965, -3.269547700881958, -6.589959621429443, -5.414825916290283, 27.175518035888672, -2.782719850540161, 12.33328914642334, 
456, 3156695082, -129.24282836914062, 22.626102447509766, 25.20634651184082, -3.296572208404541, -6.425665378570557, -5.194491863250732, 26.268489837646484, -1.8356069326400757, 10.203719139099121, 
457, 3156703415, -129.06204223632812, 22.683853149414062, 25.155292510986328, -3.2227864265441895, -5.8553147315979, -5.214956283569336, 25.692045211791992, -0.9614439010620117, 8.272072792053223, 
458, 3156711748, -128.91493225097656, 22.724435806274414, 25.108173370361328, -3.268526315689087, -6.050942420959473, -5.216693878173828, 21.486459732055664, -0.04412054270505905, 6.456634044647217, 
459, 3156720081, -128.78941345214844, 22.7547550201416, 25.0515079498291, -3.1334495544433594, -5.602447986602783, -5.265605926513672, 19.326047897338867, 1.627657175064087, 6.094192028045654, 
460, 3156728414, -128.7166290283203, 22.77090072631836, 24.988510131835938, -3.135159969329834, -5.408009052276611, -5.305141925811768, 13.313408851623535, 3.1900227069854736, 5.264673233032227, 
461, 3156736747, -128.70193481445312, 22.77678108215332, 24.917049407958984, -3.197624921798706, -5.453016757965088, -5.225440502166748, 6.720522403717041, 4.756166458129883, 4.823327541351318, 
462, 3156745080, -128.74070739746094, 22.766319274902344, 24.844079971313477, -3.1683900356292725, -5.6596574783325195, -5.104903697967529, 0.3877098560333252, 6.049710750579834, 3.459240674972534, 
463, 3156753413, -128.80531311035156, 22.744062423706055, 24.78183364868164, -3.2472445964813232, -6.142004013061523, -5.028216361999512, -3.221540689468384, 6.067755699157715, 1.5573198795318604, 
464, 3156761746, -128.872314453125, 22.70962142944336, 24.739028930664062, -3.355950117111206, -6.220423221588135, -4.9677205085754395, -4.404995441436768, 5.247076034545898, -0.8595240116119385, 
465, 3156770079, -128.9470672607422, 22.67405128479004, 24.71133041381836, -3.429190158843994, -6.544777870178223, -5.034976005554199, -6.044844150543213, 4.094204902648926, -2.065877914428711, 
466, 3156778412, -129.003662109375, 22.625452041625977, 24.705442428588867, -3.470546245574951, -6.5573601722717285, -5.14776611328125, -4.872378349304199, 3.1387429237365723, -4.737007141113281, 
467, 3156786745, -129.0646209716797, 22.574607849121094, 24.70869255065918, -3.4852187633514404, -6.369400978088379, -5.214160442352295, -5.819772243499756, 2.586986541748047, -5.639959812164307, 
468, 3156795078, -129.1269073486328, 22.51839256286621, 24.706262588500977, -3.5271403789520264, -6.591911315917969, -5.378974914550781, -5.713690757751465, 3.4291956424713135, -5.675140857696533, 
469, 3156803411, -129.17660522460938, 22.460237503051758, 24.700016021728516, -3.553781270980835, -6.718326568603516, -5.367616653442383, -4.032936096191406, 3.9660446643829346, -5.649348735809326, 
470, 3156811744, -129.2308349609375, 22.395605087280273, 24.691932678222656, -3.489147901535034, -6.625136852264404, -5.380303382873535, -4.485936164855957, 4.561895370483398, -6.055294990539551, 
471, 3156820077, -129.2855682373047, 22.323415756225586, 24.67604637145996, -3.6111066341400146, -6.888823509216309, -5.516933917999268, -4.200479507446289, 5.871642112731934, -6.26347541809082, 
472, 3156828410, -129.33619689941406, 22.246219635009766, 24.658226013183594, -3.598069429397583, -6.569829940795898, -5.625509738922119, -3.617485523223877, 6.365367889404297, -6.526083946228027, 
473, 3156836743, -129.4259796142578, 22.165027618408203, 24.62989044189453, -3.4904303550720215, -6.543025970458984, -5.714923858642578, -7.847510814666748, 7.636898517608643, -6.206714153289795, 
474, 3156845076, -129.52154541015625, 22.071277618408203, 24.590700149536133, -3.5307400226593018, -6.779152870178223, -5.985588550567627, -8.046100616455078, 9.481125831604004, -6.526406764984131, 
475, 3156853409, -129.609619140625, 21.97579574584961, 24.532901763916016, -3.477761745452881, -6.555371284484863, -6.066734790802002, -6.324041366577148, 11.277515411376953, -5.410048007965088, 
476, 3156861742, -129.7122802734375, 21.8690185546875, 24.47216033935547, -3.626002311706543, -6.806629180908203, -5.979712963104248, -7.948495388031006, 12.349111557006836, -6.16049337387085, 
477, 3156870075, -129.80474853515625, 21.75855827331543, 24.419408798217773, -3.713836669921875, -7.246601104736328, -5.853888988494873, -7.096297740936279, 12.01793384552002, -7.102470874786377, 
478, 3156878408, -129.89088439941406, 21.640060424804688, 24.386634826660156, -3.7019217014312744, -7.375354766845703, -5.7124738693237305, -7.23234748840332, 10.881979942321777, -9.186944007873535, 
479, 3156886741, -129.95993041992188, 21.521068572998047, 24.373899459838867, -3.87943696975708, -7.635336875915527, -5.799137592315674, -6.076645374298096, 9.277746200561523, -10.709774017333984, 
480, 3156895074, -130.006103515625, 21.39909553527832, 24.376415252685547, -3.8819468021392822, -7.343550205230713, -5.838262557983398, -4.003800392150879, 8.155447006225586, -12.008428573608398, 
481, 3156903407, -130.0424346923828, 21.273895263671875, 24.38825225830078, -3.797290086746216, -7.161925792694092, -5.974088191986084, -3.2295072078704834, 7.672873020172119, -13.02621078491211, 
482, 3156911740, -130.0830078125, 21.14899444580078, 24.399614334106445, -3.6844799518585205, -7.180985927581787, -6.032108783721924, -3.7131171226501465, 7.637667179107666, -12.900150299072266, 
483, 3156920073, -130.13348388671875, 21.022645950317383, 24.41011619567871, -3.6779541969299316, -6.997307300567627, -6.008808612823486, -4.8658599853515625, 7.891247272491455, -13.025097846984863, 
484, 3156928406, -130.2060089111328, 20.89437484741211, 24.41961669921875, -3.7291054725646973, -6.904303550720215, -6.031384468078613, -7.462029457092285, 8.080345153808594, -13.061406135559082, 
485, 3156936739, -130.29884338378906, 20.769866943359375, 24.41986656188965, -3.6275877952575684, -6.944859504699707, -6.103751182556152, -9.506263732910156, 8.655037879943848, -12.090791702270508, 
486, 3156945072, -130.4010772705078, 20.651981353759766, 24.411727905273438, -3.603938102722168, -7.021895885467529, -6.0346293449401855, -10.273181915283203, 8.82048225402832, -10.802703857421875, 
487, 3156953405, -130.50302124023438, 20.541324615478516, 24.402328491210938, -3.6639204025268555, -7.279891490936279, -5.981853008270264, -10.19161319732666, 8.443095207214355, -10.090103149414062, 
488, 3156961738, -130.59507751464844, 20.437562942504883, 24.40077781677246, -3.64083194732666, -7.437473773956299, -5.946450710296631, -9.331791877746582, 7.192222595214844, -9.960596084594727, 
489, 3156970071, -130.6675567626953, 20.341224670410156, 24.417102813720703, -3.63484787940979, -7.4699177742004395, -6.019796848297119, -7.738765716552734, 5.157888412475586, -10.641013145446777, 
490, 3156978404, -130.73548889160156, 20.244558334350586, 24.44161033630371, -3.5960659980773926, -7.205478191375732, -6.116763114929199, -7.520174026489258, 4.440202713012695, -11.203861236572266, 
491, 3156986737, -130.8279266357422, 20.14889144897461, 24.468629837036133, -3.643604278564453, -7.095412254333496, -6.110998153686523, -10.570086479187012, 4.219433307647705, -11.349349021911621, 
492, 3156995070, -130.93914794921875, 20.05139923095703, 24.495254516601562, -3.6363301277160645, -7.285017967224121, -6.072669982910156, -12.794734954833984, 4.353139877319336, -11.422017097473145, 
493, 3157003403, -131.04124450683594, 19.956363677978516, 24.525306701660156, -3.707706928253174, -7.478758335113525, -6.178227424621582, -11.844011306762695, 3.9494340419769287, -11.49998664855957, 
494, 3157011736, -131.12306213378906, 19.863895416259766, 24.557750701904297, -3.6651406288146973, -7.335567474365234, -6.268389701843262, -9.495442390441895, 3.4974451065063477, -11.381956100463867, 
495, 3157020069, -131.204833984375, 19.769094467163086, 24.583011627197266, -3.679407835006714, -6.972132682800293, -6.3632307052612305, -9.19752311706543, 4.365793704986572, -11.111187934875488, 
496, 3157028402, -131.3082275390625, 19.67711639404297, 24.589805603027344, -3.6329407691955566, -6.860270977020264, -6.346907138824463, -11.035408020019531, 5.667316913604736, -9.416434288024902, 
497, 3157036735, -131.4165496826172, 19.583377838134766, 24.58154296875, -3.694246768951416, -6.960443496704102, -6.4116902351379395, -11.020936965942383, 7.159832954406738, -8.49378490447998, 
498, 3157045068, -131.5108642578125, 19.484846115112305, 24.559471130371094, -3.64709210395813, -6.992225646972656, -6.415949821472168, -8.782456398010254, 8.665334701538086, -7.8184380531311035, 
499, 3157053401, -131.60162353515625, 19.3847599029541, 24.522981643676758, -3.6710116863250732, -7.084222316741943, -6.38322114944458, -7.79028844833374, 10.084593772888184, -6.919353008270264, 
500, 3157061734, -131.6875457763672, 19.281578063964844, 24.483657836914062, -3.7410635948181152, -7.082396507263184, -6.319034099578857, -7.099229335784912, 10.52153491973877, -6.90489387512207, 
501, 3157070067, -131.76234436035156, 19.180171966552734, 24.44700813293457, -3.708212375640869, -7.024153232574463, -6.367047309875488, -5.882347583770752, 10.226484298706055, -6.991700649261475, 
502, 3157078400, -131.83473205566406, 19.072410583496094, 24.41524887084961, -3.79109787940979, -6.993625640869141, -6.298279285430908, -5.7889204025268555, 10.268326759338379, -7.851994037628174, 
503, 3157086733, -131.90328979492188, 18.95922088623047, 24.384246826171875, -3.7717301845550537, -6.8220319747924805, -6.413042068481445, -5.374341011047363, 10.713821411132812, -8.442183494567871, 
504, 3157095066, -131.9876251220703, 18.842166900634766, 24.34813117980957, -3.7509677410125732, -6.864511489868164, -6.373937606811523, -7.066200256347656, 11.402524948120117, -8.318531036376953, 
505, 3157103399, -132.0853729248047, 18.72731590270996, 24.307004928588867, -3.8027589321136475, -6.984230995178223, -6.421875, -8.492044448852539, 11.731797218322754, -7.782068252563477, 
506, 3157111732, -132.18392944335938, 18.613727569580078, 24.25800895690918, -3.7669904232025146, -7.2220377922058105, -6.501780986785889, -8.297040939331055, 12.24018669128418, -6.983978748321533, 
507, 3157120065, -132.2738037109375, 18.49932098388672, 24.204036712646484, -3.7037885189056396, -7.2024335861206055, -6.527939319610596, -7.076701641082764, 12.804339408874512, -6.716641902923584, 
508, 3157128398, -132.36651611328125, 18.388198852539062, 24.139230728149414, -3.7256717681884766, -7.35251522064209, -6.602343559265137, -7.017302513122559, 13.39866828918457, -5.504756450653076, 
509, 3157136731, -132.440673828125, 18.283065795898438, 24.071212768554688, -3.717543840408325, -7.455300331115723, -6.533042907714844, -4.684025764465332, 13.261504173278809, -4.767886161804199, 
510, 3157145064, -132.49526977539062, 18.181142807006836, 24.005123138427734, -3.7775368690490723, -7.565828800201416, -6.570738792419434, -2.4230687618255615, 12.779559135437012, -4.5499725341796875, 
511, 3157153397, -132.5209503173828, 18.085111618041992, 23.953954696655273, -3.7661001682281494, -7.481826305389404, -6.527394771575928, 0.47664251923561096, 11.124454498291016, -5.228326320648193, 
512, 3157161730, -132.53099060058594, 17.995773315429688, 23.9099063873291, -3.783121109008789, -7.374332427978516, -6.524288654327393, 2.0812463760375977, 9.91554069519043, -5.116494655609131, 
513, 3157170063, -132.52687072753906, 17.917205810546875, 23.866172790527344, -3.8074679374694824, -7.444819450378418, -6.533971786499023, 3.7543437480926514, 9.090070724487305, -4.2533721923828125, 
514, 3157178396, -132.50587463378906, 17.843271255493164, 23.823257446289062, -3.792017936706543, -7.414741516113281, -6.544637203216553, 5.752317905426025, 8.572572708129883, -3.840637683868408, 
515, 3157186729, -132.4723663330078, 17.775609970092773, 23.789413452148438, -3.7955591678619385, -7.327937126159668, -6.424619197845459, 6.90650749206543, 7.374685287475586, -4.056219577789307, 
516, 3157195062, -132.43824768066406, 17.718252182006836, 23.76205825805664, -3.809140205383301, -7.403188705444336, -6.335562705993652, 6.744958877563477, 5.918309688568115, -3.5799481868743896, 
517, 3157203395, -132.38885498046875, 17.67043113708496, 23.751644134521484, -3.7947356700897217, -7.3837761878967285, -6.412750244140625, 7.950965881347656, 3.790574073791504, -4.117809295654297, 
518, 3157211728, -132.33351135253906, 17.62955093383789, 23.750917434692383, -3.7141151428222656, -7.059903144836426, -6.5196380615234375, 8.319454193115234, 2.3319971561431885, -4.178386688232422, 
519, 3157220061, -132.2991180419922, 17.59425163269043, 23.75577163696289, -3.6513333320617676, -6.737884044647217, -6.460071086883545, 5.592676162719727, 1.4841272830963135, -4.191436767578125, 
520, 3157228394, -132.29150390625, 17.5665283203125, 23.762548446655273, -3.7164266109466553, -6.931199073791504, -6.4844231605529785, 2.31697416305542, 0.6296363472938538, -3.5946764945983887, 
521, 3157236727, -132.28768920898438, 17.545814514160156, 23.771169662475586, -3.6520774364471436, -6.902136325836182, -6.462285041809082, 1.7880913019180298, -0.011167806573212147, -3.1885111331939697, 
522, 3157245060, -132.3057403564453, 17.531463623046875, 23.784318923950195, -3.6732754707336426, -6.8797149658203125, -6.419041156768799, -0.9907329082489014, -0.9886837601661682, -2.898071527481079, 
523, 3157253393, -132.3385772705078, 17.523277282714844, 23.807212829589844, -3.6319658756256104, -7.056096076965332, -6.389312267303467, -3.124603748321533, -2.2272090911865234, -3.1779069900512695, 
524, 3157261726, -132.36859130859375, 17.518905639648438, 23.838306427001953, -3.6113169193267822, -7.103246688842773, -6.432516574859619, -3.0739641189575195, -3.3124072551727295, -3.3972413539886475, 
525, 3157270059, -132.3972930908203, 17.52188491821289, 23.875080108642578, -3.563459634780884, -6.944981098175049, -6.441722393035889, -3.1303417682647705, -4.299656867980957, -3.2629973888397217, 
526, 3157278392, -132.43832397460938, 17.528472900390625, 23.920141220092773, -3.433978319168091, -6.953557968139648, -6.456291675567627, -4.903461456298828, -5.374635219573975, -3.5046939849853516, 
527, 3157286725, -132.48187255859375, 17.54206085205078, 23.974145889282227, -3.3213229179382324, -6.802536487579346, -6.5795722007751465, -5.534365653991699, -6.609830856323242, -3.662477731704712, 
528, 3157295058, -132.53221130371094, 17.555452346801758, 24.029987335205078, -3.348736524581909, -6.945986270904541, -6.476396083831787, -6.410871505737305, -6.830765724182129, -3.74478816986084, 
529, 3157303391, -132.57711791992188, 17.568504333496094, 24.096210479736328, -3.348560094833374, -7.0007734298706055, -6.517649173736572, -6.141589641571045, -7.588332653045654, -4.661138534545898, 
530, 3157311724, -132.62716674804688, 17.579002380371094, 24.162853240966797, -3.3047304153442383, -6.719661712646484, -6.525668621063232, -6.772110462188721, -7.500579357147217, -4.845381736755371, 
531, 3157320057, -132.69802856445312, 17.59139060974121, 24.23013687133789, -3.3456475734710693, -6.755764007568359, -6.566919803619385, -9.29906940460205, -7.615241050720215, -4.817705154418945, 
532, 3157328390, -132.77552795410156, 17.59971046447754, 24.296382904052734, -3.409602165222168, -7.126163959503174, -6.596919536590576, -10.055726051330566, -7.278861999511719, -5.021018028259277, 
533, 3157336723, -132.83961486816406, 17.60359764099121, 24.362417221069336, -3.4487197399139404, -7.165773868560791, -6.620942115783691, -8.441798210144043, -6.802870750427246, -5.484507083892822, 
534, 3157345056, -132.90478515625, 17.602670669555664, 24.424209594726562, -3.36261248588562, -6.948823928833008, -6.664093494415283, -8.413251876831055, -6.139220237731934, -5.501348972320557, 
535, 3157353389, -132.97828674316406, 17.600826263427734, 24.4764461517334, -3.2554709911346436, -6.911725044250488, -6.83140230178833, -9.072511672973633, -5.171846866607666, -4.930868625640869, 
536, 3157361722, -133.0666961669922, 17.59088134765625, 24.51264762878418, -3.163888692855835, -7.040691375732422, -6.966575622558594, -10.274868965148926, -3.2479875087738037, -4.308596611022949, 
537, 3157370055, -133.15628051757812, 17.573007583618164, 24.53125762939453, -2.9628748893737793, -7.063797950744629, -6.98563814163208, -9.777850151062012, -1.031843900680542, -3.7153451442718506, 
538, 3157378388, -133.24806213378906, 17.547155380249023, 24.539892196655273, -2.960543394088745, -7.321389675140381, -7.021426677703857, -9.677249908447266, 0.3682558834552765, -3.550863265991211, 
539, 3157386721, -133.3244171142578, 17.513715744018555, 24.539894104003906, -2.9171414375305176, -7.568295001983643, -7.168134689331055, -7.51676607131958, 1.807340383529663, -3.614847421646118, 
540, 3157395054, -133.3780975341797, 17.46805191040039, 24.534805297851562, -2.842606782913208, -7.601709365844727, -7.181534767150879, -4.60720682144165, 3.1508967876434326, -4.1953816413879395, 
541, 3157403387, -133.4272003173828, 17.412952423095703, 24.521839141845703, -2.845141649246216, -7.729991436004639, -7.246278762817383, -3.7789955139160156, 4.67473840713501, -4.478085041046143, 
542, 3157411720, -133.47579956054688, 17.346111297607422, 24.50893783569336, -2.8262882232666016, -7.866150379180908, -7.31338357925415, -3.7216079235076904, 5.554652214050293, -5.419729709625244, 
543, 3157420053, -133.5238494873047, 17.27117156982422, 24.503080368041992, -2.661032199859619, -7.851628303527832, -7.358362674713135, -3.905850887298584, 5.727137565612793, -6.752923965454102, 
544, 3157428386, -133.5790252685547, 17.18728256225586, 24.498014450073242, -2.594970703125, -7.719761371612549, -7.414278984069824, -4.790630340576172, 6.323347568511963, -7.50689172744751, 
545, 3157436719, -133.6503448486328, 17.099607467651367, 24.487625122070312, -2.6528587341308594, -7.752495288848877, -7.3026933670043945, -6.545281887054443, 7.167900085449219, -7.485990524291992, 
546, 3157445052, -133.73223876953125, 17.006738662719727, 24.47843360900879, -2.67183256149292, -7.873330593109131, -7.1428303718566895, -7.854157447814941, 7.4245686531066895, -7.942245006561279, 
547, 3157453385, -133.80921936035156, 16.915794372558594, 24.479372024536133, -2.6866650581359863, -7.837447166442871, -7.056912422180176, -7.62640905380249, 6.517632484436035, -8.642244338989258, 
548, 3157461718, -133.86428833007812, 16.823299407958984, 24.483482360839844, -2.6294753551483154, -7.722744464874268, -7.186212539672852, -5.1011528968811035, 6.312437534332275, -8.94633674621582, 
549, 3157470051, -133.8917236328125, 16.7280216217041, 24.484455108642578, -2.503325939178467, -7.4981889724731445, -7.224237442016602, -1.6817283630371094, 6.887911796569824, -9.001816749572754, 
550, 3157478384, -133.91578674316406, 16.629222869873047, 24.477821350097656, -2.465237855911255, -7.232049465179443, -7.242186069488525, -1.0091753005981445, 7.736843109130859, -8.62513256072998, 
551, 3157486717, -133.94053649902344, 16.522851943969727, 24.463699340820312, -2.450395107269287, -7.202332496643066, -7.155754089355469, -0.8393914699554443, 9.066723823547363, -8.747352600097656, 
552, 3157495050, -133.9585418701172, 16.412513732910156, 24.44527244567871, -2.432027816772461, -6.986936092376709, -7.1299967765808105, 0.1141754686832428, 9.680991172790527, -8.673288345336914, 
553, 3157503383, -133.9862518310547, 16.3034610748291, 24.42647361755371, -2.396279811859131, -6.819547653198242, -7.047204971313477, -1.0404249429702759, 9.683040618896484, -8.59385871887207, 
554, 3157511716, -134.0247802734375, 16.19794464111328, 24.416423797607422, -2.3804924488067627, -6.924743175506592, -6.878925800323486, -2.636768341064453, 8.595369338989258, -8.915099143981934, 
555, 3157520049, -134.06591796875, 16.108749389648438, 24.41763687133789, -2.444227933883667, -6.989712238311768, -6.705906867980957, -3.3318228721618652, 6.376394748687744, -8.466657638549805, 
556, 3157528382, -134.09811401367188, 16.030033111572266, 24.43612289428711, -2.509042501449585, -7.112384796142578, -6.81598424911499, -2.8280935287475586, 4.005695343017578, -8.881352424621582, 
557, 3157536715, -134.12893676757812, 15.962241172790527, 24.457292556762695, -2.465423583984375, -6.823614120483398, -6.831431865692139, -2.752685308456421, 2.9446513652801514, -8.21789264678955, 
558, 3157545048, -134.17022705078125, 15.915850639343262, 24.465900421142578, -2.418933153152466, -6.742120265960693, -6.754978656768799, -3.586376905441284, 2.1305792331695557, -5.297382354736328, 
559, 3157553381, -134.21998596191406, 15.893325805664062, 24.467992782592773, -2.52498197555542, -6.821334362030029, -6.476268291473389, -4.393174171447754, 0.7437477111816406, -2.780578851699829, 
560, 3157561714, -134.26731872558594, 15.897123336791992, 24.473527908325195, -2.6112656593322754, -6.949708461761475, -6.485848426818848, -4.212568759918213, -1.8103630542755127, -0.7303130626678467, 
561, 3157570047, -134.29945373535156, 15.921628952026367, 24.48455810546875, -2.6742594242095947, -7.046655178070068, -6.481690406799316, -2.569338321685791, -3.9323487281799316, 0.5456216931343079, 
562, 3157578380, -134.31692504882812, 15.963805198669434, 24.494888305664062, -2.629081964492798, -6.704795837402344, -6.4774603843688965, -0.788226842880249, -5.423916339874268, 2.176941156387329, 
563, 3157586713, -134.34634399414062, 16.021469116210938, 24.50278091430664, -2.673232078552246, -6.712101936340332, -6.604827404022217, -2.144296169281006, -6.458451271057129, 3.6416404247283936, 
564, 3157595046, -134.3760986328125, 16.091157913208008, 24.503122329711914, -2.66756534576416, -6.945912837982178, -6.621797561645508, -1.9345917701721191, -6.910771369934082, 5.339889049530029, 
565, 3157603379, -134.39926147460938, 16.1701717376709, 24.50093650817871, -2.680421829223633, -7.034752368927002, -6.5508856773376465, -1.056100606918335, -7.420085430145264, 6.284337520599365, 
566, 3157611712, -134.41259765625, 16.250789642333984, 24.498144149780273, -2.7110023498535156, -7.37174654006958, -6.630546569824219, 0.14418253302574158, -7.575551509857178, 6.524534702301025, 
567, 3157620045, -134.39056396484375, 16.330650329589844, 24.498088836669922, -2.7188034057617188, -7.402286529541016, -6.590101718902588, 4.2900519371032715, -7.670350551605225, 6.181253910064697, 
568, 3157628378, -134.351318359375, 16.40793800354004, 24.50790023803711, -2.6549367904663086, -7.1074628829956055, -6.4954681396484375, 6.029989242553711, -8.329032897949219, 5.2300310134887695, 
569, 3157636711, -134.30267333984375, 16.48042106628418, 24.519893646240234, -2.661863088607788, -7.269102573394775, -6.681267261505127, 7.074435234069824, -8.034110069274902, 4.591083526611328, 
570, 3157645044, -134.23110961914062, 16.539743423461914, 24.52611541748047, -2.576539993286133, -7.154751777648926, -6.773862838745117, 10.02566909790039, -6.515621662139893, 3.9873428344726562, 
571, 3157653377, -134.1557159423828, 16.585168838500977, 24.521215438842773, -2.4796714782714844, -6.827371597290039, -6.704187393188477, 10.855850219726562, -4.36831521987915, 3.6314327716827393, 
572, 3157661710, -134.08663940429688, 16.61357879638672, 24.504375457763672, -2.439966917037964, -7.003054141998291, -6.789391994476318, 10.518576622009277, -2.01865816116333, 3.1850409507751465, 
573, 3157670043, -134.00772094726562, 16.62522315979004, 24.487293243408203, -2.4076671600341797, -7.063526630401611, -6.769045352935791, 11.701020240783691, -0.5291773676872253, 1.7065740823745728, 
574, 3157678376, -133.9258270263672, 16.61817741394043, 24.472732543945312, -2.368381977081299, -6.869278430938721, -6.806711673736572, 11.977192878723145, 0.7563628554344177, -0.058362044394016266, 
575, 3157686709, -133.85122680664062, 16.59140968322754, 24.454845428466797, -2.2736504077911377, -6.749157905578613, -6.881043910980225, 11.208239555358887, 2.7349472045898438, -1.552402138710022, 
576, 3157695042, -133.79052734375, 16.543785095214844, 24.435504913330078, -2.2037127017974854, -6.690831184387207, -6.834153175354004, 9.597590446472168, 4.526791572570801, -3.1944539546966553, 
577, 3157703375, -133.74664306640625, 16.47974395751953, 24.416622161865234, -2.179841995239258, -6.605931758880615, -6.804403781890869, 7.551294803619385, 5.906527996063232, -4.711406230926514, 
578, 3157711708, -133.72525024414062, 16.39964485168457, 24.39510154724121, -2.1669209003448486, -6.597268104553223, -6.837498664855957, 4.951014518737793, 7.400273323059082, -5.8442206382751465, 
579, 3157720041, -133.73098754882812, 16.301984786987305, 24.368200302124023, -2.2111027240753174, -6.647499084472656, -6.806642055511475, 1.864383339881897, 9.357367515563965, -6.990087985992432, 
580, 3157728374, -133.74835205078125, 16.189208984375, 24.33641242980957, -2.2632062435150146, -6.59514856338501, -6.713089942932129, 0.6302382349967957, 10.96806812286377, -7.858844757080078, 
581, 3157736707, -133.78121948242188, 16.067262649536133, 24.30558967590332, -2.3079910278320312, -6.466455936431885, -6.551600933074951, -1.268378496170044, 11.706398010253906, -8.76717758178711, 
582, 3157745040, -133.8294219970703, 15.948162078857422, 24.27776527404785, -2.365288496017456, -6.584726810455322, -6.433037757873535, -3.2135751247406006, 11.175414085388184, -8.705421447753906, 
583, 3157753373, -133.8732147216797, 15.835127830505371, 24.26007080078125, -2.4395205974578857, -6.679279327392578, -6.3557634353637695, -3.0239784717559814, 9.884151458740234, -9.023781776428223, 
584, 3157761706, -133.90713500976562, 15.727948188781738, 24.2547607421875, -2.4910120964050293, -6.728700637817383, -6.341411590576172, -2.246356248855591, 8.32444953918457, -9.454331398010254, 
585, 3157770039, -133.93832397460938, 15.630454063415527, 24.259559631347656, -2.512094259262085, -6.5393524169921875, -6.283571720123291, -2.2521703243255615, 6.728194236755371, -9.470441818237305, 
586, 3157778372, -133.9750518798828, 15.54545783996582, 24.26940155029297, -2.5159969329833984, -6.552903175354004, -6.283790111541748, -3.075488328933716, 5.225944519042969, -8.743099212646484, 
587, 3157786705, -134.00767517089844, 15.476073265075684, 24.28450584411621, -2.525038957595825, -6.826531410217285, -6.2601318359375, -2.746755361557007, 3.5392980575561523, -7.859433650970459, 
588, 3157795038, -134.02288818359375, 15.422932624816895, 24.307214736938477, -2.586364984512329, -6.819275856018066, -6.218724727630615, -0.9033244252204895, 1.5071929693222046, -7.022412300109863, 
589, 3157803371, -134.0333709716797, 15.390578269958496, 24.343557357788086, -2.6391351222991943, -6.734831809997559, -6.035764217376709, -0.7689777612686157, -1.3109748363494873, -6.370708465576172, 
590, 3157811704, -134.0408172607422, 15.377677917480469, 24.389936447143555, -2.5956504344940186, -6.827534198760986, -6.286592483520508, -0.7227056622505188, -3.8177762031555176, -5.454039096832275, 
591, 3157820037, -134.03738403320312, 15.378336906433105, 24.44247055053711, -2.6971404552459717, -7.042956829071045, -6.341263771057129, 0.3878123462200165, -5.412365436553955, -4.823980331420898, 
592, 3157828370, -134.02651977539062, 15.394591331481934, 24.49774742126465, -2.558903217315674, -6.697432518005371, -6.248149871826172, 1.1927655935287476, -6.987743854522705, -3.653512716293335, 
593, 3157836703, -134.01869201660156, 15.423561096191406, 24.555139541625977, -2.58181095123291, -6.947667598724365, -6.3399200439453125, 0.7556967735290527, -8.175539016723633, -2.7647881507873535, 
594, 3157845036, -133.99205017089844, 15.459395408630371, 24.61516571044922, -2.5540740489959717, -7.0574870109558105, -6.4029741287231445, 2.9294745922088623, -9.016145706176758, -2.341230630874634, 
595, 3157853369, -133.95330810546875, 15.501459121704102, 24.679237365722656, -2.447787284851074, -6.921422004699707, -6.462296009063721, 4.2398481369018555, -9.824840545654297, -2.166900634765625, 
596, 3157861702, -133.91262817382812, 15.547392845153809, 24.745370864868164, -2.3869924545288086, -6.851281642913818, -6.510132789611816, 4.408632755279541, -10.365159034729004, -1.945939064025879, 
597, 3157870035, -133.87403869628906, 15.59820556640625, 24.811752319335938, -2.2617874145507812, -6.893153667449951, -6.492702007293701, 4.137941360473633, -10.740791320800781, -1.5749680995941162, 
598, 3157878368, -133.84495544433594, 15.655152320861816, 24.8792724609375, -2.2127702236175537, -6.86149263381958, -6.471558094024658, 2.9557418823242188, -11.395441055297852, -1.0899626016616821, 
599, 3157886701, -133.8182830810547, 15.714981079101562, 24.95062255859375, -2.198975086212158, -6.920304775238037, -6.481046676635742, 2.527714967727661, -11.909479141235352, -1.1823657751083374, 
600, 3157895034, -133.78480529785156, 15.771992683410645, 25.024654388427734, -2.224382162094116, -6.976667404174805, -6.549385070800781, 3.254955291748047, -11.942498207092285, -1.5902217626571655, 
601, 3157903367, -133.7444305419922, 15.826982498168945, 25.09982681274414, -2.1816494464874268, -6.7844557762146, -6.453463077545166, 4.029874801635742, -11.826146125793457, -1.8887171745300293, 
602, 3157911700, -133.71482849121094, 15.879493713378906, 25.16969108581543, -2.2131407260894775, -6.741363525390625, -6.46718692779541, 2.9116084575653076, -11.217216491699219, -1.6317036151885986, 
603, 3157920033, -133.68231201171875, 15.930161476135254, 25.23032569885254, -2.254004955291748, -6.620142936706543, -6.490921974182129, 3.5522468090057373, -10.250639915466309, -1.0838408470153809, 
604, 3157928366, -133.66526794433594, 15.976495742797852, 25.27839469909668, -2.2317190170288086, -6.500869274139404, -6.471937656402588, 2.109985589981079, -8.885887145996094, -0.4189208745956421, 
