PacketCounter,SampleTimeFine,Euler_X,Euler_Y,Euler_Z,Acc_X,Acc_Y,Acc_Z,Gyr_X,Gyr_Y,Gyr_Z,
0, 2978585540, -170.03189086914062, -6.047856330871582, 28.011205673217773, 0, 0, 0, 0, 0, 0, 
1, 2978593873, -170.05177307128906, -5.955964088439941, 27.959760665893555, 1.0930124521255493, -2.265636920928955, -9.745043754577637, -1.2819925546646118, -10.883413314819336, 7.37227725982666, 
2, 2978602206, -170.05543518066406, -5.859835624694824, 27.908567428588867, 0.9813633561134338, -2.6056220531463623, -9.79620361328125, 0.5724525451660156, -11.345940589904785, 7.406919956207275, 
3, 2978610539, -170.03277587890625, -5.762127876281738, 27.859954833984375, 0.8875942826271057, -2.6010847091674805, -9.895368576049805, 3.8711442947387695, -11.631119728088379, 7.16172981262207, 
4, 2978618872, -169.98822021484375, -5.666812896728516, 27.808223724365234, 0.8787668347358704, -2.7310259342193604, -10.131172180175781, 6.3741936683654785, -11.231793403625488, 7.463438987731934, 
5, 2978627205, -169.92364501953125, -5.583828926086426, 27.74541473388672, 0.8718926906585693, -3.037627935409546, -10.284393310546875, 8.742971420288086, -9.581929206848145, 8.538290023803711, 
6, 2978635538, -169.8360595703125, -5.505537986755371, 27.6667423248291, 0.9409706592559814, -3.329023838043213, -10.425704002380371, 11.245047569274902, -8.635634422302246, 10.298114776611328, 
7, 2978643871, -169.70909118652344, -5.430203437805176, 27.57586669921875, 0.9734153151512146, -3.890772581100464, -10.544123649597168, 15.919626235961914, -8.053221702575684, 11.700242042541504, 
8, 2978652204, -169.52413940429688, -5.3452253341674805, 27.477294921875, 0.8623039722442627, -4.420985221862793, -10.524502754211426, 22.72873878479004, -8.946672439575195, 12.819047927856445, 
9, 2978660537, -169.26409912109375, -5.241889953613281, 27.386363983154297, 0.6914933323860168, -4.781064510345459, -10.491518020629883, 31.90170669555664, -11.271452903747559, 12.374109268188477, 
10, 2978668870, -168.9143829345703, -5.1180500984191895, 27.303781509399414, 0.46553975343704224, -5.118220329284668, -10.713606834411621, 42.71983337402344, -13.762950897216797, 11.900036811828613, 
11, 2978677203, -168.4611358642578, -4.981874465942383, 27.216873168945312, 0.427401602268219, -5.044152736663818, -10.953154563903809, 55.14836120605469, -15.06596851348877, 12.802059173583984, 
12, 2978685536, -167.91957092285156, -4.832479953765869, 27.118534088134766, 0.4251598119735718, -5.151243686676025, -11.046331405639648, 65.62787628173828, -16.18065643310547, 14.576930046081543, 
13, 2978693869, -167.28720092773438, -4.667438507080078, 27.005903244018555, 0.4238547086715698, -5.509424209594727, -11.007146835327148, 76.41361999511719, -17.52666664123535, 16.812240600585938, 
14, 2978702202, -166.546142578125, -4.484560489654541, 26.882183074951172, 0.24735617637634277, -6.146320343017578, -11.117937088012695, 89.3905029296875, -19.065410614013672, 18.77977180480957, 
15, 2978710535, -165.67543029785156, -4.284034252166748, 26.754043579101562, 0.14290830492973328, -6.574475288391113, -11.0834321975708, 104.9271469116211, -20.748205184936523, 20.063133239746094, 
16, 2978718868, -164.66319274902344, -4.060122013092041, 26.633983612060547, -0.024191049858927727, -6.740556716918945, -11.046590805053711, 122.07061767578125, -23.335710525512695, 20.16724967956543, 
17, 2978727201, -163.51966857910156, -3.8088362216949463, 26.525222778320312, -0.13154321908950806, -6.7464823722839355, -11.118257522583008, 137.90850830078125, -26.49122428894043, 20.18702507019043, 
18, 2978735534, -162.25018310546875, -3.531817674636841, 26.42923355102539, -0.26351815462112427, -6.554043292999268, -11.109326362609863, 153.25241088867188, -29.427541732788086, 20.16786003112793, 
19, 2978743867, -160.88201904296875, -3.2186155319213867, 26.358144760131836, -0.25526463985443115, -6.0680975914001465, -11.353693962097168, 165.22267150878906, -34.0162239074707, 19.35909080505371, 
20, 2978752200, -159.4318084716797, -2.8966634273529053, 26.275781631469727, -0.3911650776863098, -7.238458633422852, -11.521281242370605, 175.15234375, -34.03144454956055, 21.795528411865234, 
21, 2978760533, -157.83151245117188, -2.5601866245269775, 26.216434478759766, -0.3086630403995514, -6.045072555541992, -11.189705848693848, 193.21290588378906, -36.0521354675293, 20.729135513305664, 
22, 2978768866, -156.1917724609375, -2.1735403537750244, 26.162870407104492, -0.5969563722610474, -5.234839916229248, -11.099296569824219, 198.15745544433594, -41.24668502807617, 23.43283462524414, 
23, 2978777199, -154.54730224609375, -1.7804738283157349, 26.058515548706055, -0.5264973640441895, -8.272817611694336, -11.189452171325684, 198.39804077148438, -38.691917419433594, 30.42334747314453, 
24, 2978785532, -152.65521240234375, -1.3721404075622559, 25.98947525024414, -0.5380483269691467, -6.687741279602051, -10.875157356262207, 228.48155212402344, -41.25056076049805, 28.605239868164062, 
25, 2978793865, -150.7853240966797, -0.9269000887870789, 25.909475326538086, -0.6891846656799316, -6.170111656188965, -10.604907035827637, 225.66783142089844, -43.52782440185547, 33.14961242675781, 
26, 2978802198, -148.8415985107422, -0.44891664385795593, 25.821971893310547, -0.8693883419036865, -6.612119674682617, -10.760128021240234, 234.77685546875, -45.342689514160156, 37.31732177734375, 
27, 2978810531, -146.85763549804688, 0.058763980865478516, 25.74106216430664, -0.7199803590774536, -6.539894104003906, -10.339641571044922, 239.51263427734375, -47.42546081542969, 40.02348327636719, 
28, 2978818864, -144.8327178955078, 0.6000562906265259, 25.701183319091797, -0.7751743197441101, -7.1616339683532715, -10.26313591003418, 244.6752166748047, -52.10841369628906, 39.82831954956055, 
29, 2978827197, -142.72775268554688, 1.185659408569336, 25.717866897583008, -0.9421195387840271, -6.64432954788208, -9.323466300964355, 254.03192138671875, -58.88217544555664, 39.2891731262207, 
30, 2978835530, -140.63607788085938, 1.788944959640503, 25.792491912841797, -0.7267333269119263, -6.862602233886719, -10.949005126953125, 252.42344665527344, -63.394107818603516, 37.264427185058594, 
31, 2978843863, -138.419677734375, 2.3977904319763184, 25.88107681274414, -0.8285195231437683, -7.061603546142578, -10.64700984954834, 267.0495910644531, -63.47464370727539, 38.71684646606445, 
32, 2978852196, -136.26318359375, 2.997357130050659, 26.01999282836914, -0.792579174041748, -4.743255138397217, -9.52169132232666, 259.6473083496094, -65.24011993408203, 35.90953826904297, 
33, 2978860529, -134.1573486328125, 3.5807769298553467, 26.222909927368164, -1.0458581447601318, -6.375194549560547, -9.504292488098145, 252.7901611328125, -67.81037139892578, 31.441064834594727, 
34, 2978868862, -132.05624389648438, 4.149160385131836, 26.478715896606445, -0.8651437163352966, -5.593552589416504, -9.029483795166016, 251.71981811523438, -70.01421356201172, 28.26871681213379, 
35, 2978877195, -130.04061889648438, 4.684732913970947, 26.79039192199707, -0.6819934844970703, -5.31178617477417, -8.848586082458496, 240.50479125976562, -71.32656860351562, 23.343902587890625, 
36, 2978885528, -128.08934020996094, 5.186526775360107, 27.123348236083984, -0.5812861323356628, -4.735767364501953, -8.49837589263916, 232.3689422607422, -69.90016174316406, 21.06700325012207, 
37, 2978893861, -126.2315444946289, 5.647509574890137, 27.481473922729492, -0.44374746084213257, -4.837007999420166, -8.04189682006836, 220.42491149902344, -68.50932312011719, 17.604969024658203, 
38, 2978902194, -124.45973205566406, 6.069041728973389, 27.87037467956543, -0.2953699827194214, -4.744394779205322, -7.694099426269531, 209.5072479248047, -68.17474365234375, 13.802644729614258, 
39, 2978910527, -122.78591918945312, 6.451658248901367, 28.29034996032715, -0.20864254236221313, -4.641448974609375, -7.401144981384277, 196.94444274902344, -68.14501953125, 9.853763580322266, 
40, 2978918860, -121.20121765136719, 6.791242599487305, 28.728954315185547, 0.0787263736128807, -4.933638572692871, -7.080915451049805, 185.7465057373047, -66.97240447998047, 6.261000633239746, 
41, 2978927193, -119.70594024658203, 7.079638481140137, 29.19138526916504, 0.3288138806819916, -4.626007080078125, -6.8224921226501465, 174.35504150390625, -66.04298400878906, 1.2747570276260376, 
42, 2978935526, -118.310546875, 7.319045543670654, 29.658153533935547, 0.38378453254699707, -4.377403736114502, -6.768521785736084, 162.07879638671875, -63.572845458984375, -2.4239654541015625, 
43, 2978943859, -117.0337905883789, 7.506743431091309, 30.118852615356445, 0.6719943284988403, -4.348984241485596, -6.627360820770264, 147.73690795898438, -60.03573226928711, -6.143020153045654, 
44, 2978952192, -115.89029693603516, 7.646611213684082, 30.545822143554688, 1.0315496921539307, -3.818755865097046, -6.495246410369873, 132.11293029785156, -53.98810577392578, -8.207780838012695, 
45, 2978960525, -114.9051513671875, 7.749495029449463, 30.898881912231445, 1.206301212310791, -4.560275554656982, -6.026449680328369, 114.23951721191406, -44.262176513671875, -7.478854179382324, 
46, 2978968858, -114.0433349609375, 7.839277267456055, 31.150651931762695, 0.9494869709014893, -5.3507981300354, -5.446556568145752, 100.97091674804688, -32.74549865722656, -3.1952154636383057, 
47, 2978977191, -113.2685546875, 7.919459342956543, 31.325450897216797, 0.7030165791511536, -6.449398040771484, -4.876253128051758, 91.83992004394531, -23.94331169128418, -0.12941692769527435, 
48, 2978985524, -112.53252410888672, 7.992478370666504, 31.451393127441406, 0.6863211393356323, -6.818143844604492, -4.628329753875732, 87.88079833984375, -18.23651885986328, 1.6453806161880493, 
49, 2978993857, -111.83967590332031, 8.055107116699219, 31.529943466186523, 0.7058148980140686, -6.713693141937256, -4.600720405578613, 83.58773803710938, -12.545379638671875, 2.8464765548706055, 
50, 2979002190, -111.19524383544922, 8.109299659729004, 31.554548263549805, 0.6153850555419922, -6.6858696937561035, -4.488851070404053, 78.56542205810547, -6.141674518585205, 4.376216888427734, 
51, 2979010523, -110.59558868408203, 8.156743049621582, 31.523263931274414, 0.44722867012023926, -6.685922622680664, -4.310494422912598, 74.27326965332031, 0.37168997526168823, 6.074778079986572, 
52, 2979018856, -110.03768157958984, 8.196650505065918, 31.449247360229492, 0.162830650806427, -7.112715721130371, -3.9228577613830566, 69.85885620117188, 5.54322624206543, 6.940693378448486, 
53, 2979027189, -109.50740051269531, 8.222540855407715, 31.352628707885742, -0.12247086316347122, -7.421957492828369, -3.619054079055786, 67.09148406982422, 8.669504165649414, 6.253177165985107, 
54, 2979035522, -109.01197052001953, 8.245174407958984, 31.238372802734375, -0.35975751280784607, -6.932379722595215, -3.4098727703094482, 63.06124496459961, 10.875176429748535, 6.4378275871276855, 
55, 2979043855, -108.58578491210938, 8.267814636230469, 31.09696388244629, -0.5604792833328247, -6.637022018432617, -3.243577480316162, 55.3917350769043, 13.937846183776855, 7.443338871002197, 
56, 2979052188, -108.2327651977539, 8.296987533569336, 30.923463821411133, -0.7077524065971375, -6.300136089324951, -3.102003574371338, 47.007572174072266, 17.406028747558594, 9.226716995239258, 
57, 2979060521, -107.9791030883789, 8.331934928894043, 30.719287872314453, -0.8534064888954163, -6.219756126403809, -2.982300043106079, 35.80159378051758, 20.65400505065918, 10.98876667022705, 
58, 2979068854, -107.80459594726562, 8.37646198272705, 30.489513397216797, -1.0654019117355347, -6.607163429260254, -2.9101386070251465, 26.592845916748047, 23.281410217285156, 12.862831115722656, 
59, 2979077187, -107.68177795410156, 8.428442001342773, 30.24382781982422, -0.9528547525405884, -6.154171943664551, -3.047015905380249, 20.87331771850586, 24.786792755126953, 14.300264358520508, 
60, 2979085520, -107.7052993774414, 8.475428581237793, 29.97284507751465, -0.7005936503410339, -6.542829513549805, -2.917551279067993, 3.601440906524658, 27.891386032104492, 14.543875694274902, 
61, 2979093853, -107.77328491210938, 8.505311012268066, 29.687339782714844, -1.2101466655731201, -7.656279563903809, -2.8648183345794678, -1.2652801275253296, 30.091089248657227, 13.21385669708252, 
62, 2979102186, -107.86286926269531, 8.53823184967041, 29.407930374145508, -1.326192855834961, -7.800847053527832, -2.802935838699341, -4.137650489807129, 29.322193145751953, 13.304238319396973, 
63, 2979110519, -108.00715637207031, 8.558587074279785, 29.14126968383789, -1.2475653886795044, -8.347310066223145, -2.960097551345825, -10.720386505126953, 28.258865356445312, 11.543128967285156, 
64, 2979118852, -108.15525817871094, 8.560418128967285, 28.879396438598633, -1.2744539976119995, -8.356887817382812, -3.277620792388916, -11.451123237609863, 28.435359954833984, 9.251460075378418, 
65, 2979127185, -108.3396987915039, 8.557734489440918, 28.592241287231445, -1.175017237663269, -7.920701503753662, -3.548558473587036, -15.161006927490234, 31.36690902709961, 9.840015411376953, 
66, 2979135518, -108.58465576171875, 8.540929794311523, 28.268434524536133, -0.9968011975288391, -7.732419490814209, -3.8996963500976562, -21.975379943847656, 36.04928970336914, 9.653084754943848, 
67, 2979143851, -108.93063354492188, 8.520628929138184, 27.913862228393555, -0.9573832750320435, -7.688377380371094, -3.4393672943115234, -33.360843658447266, 39.52882766723633, 10.69924545288086, 
68, 2979152184, -109.3642807006836, 8.496350288391113, 27.57112693786621, -1.2183257341384888, -8.84672737121582, -3.282909870147705, -44.309776306152344, 38.344322204589844, 9.986148834228516, 
69, 2979160517, -109.78929901123047, 8.446666717529297, 27.26144027709961, -1.3730252981185913, -9.778637886047363, -3.3593990802764893, -43.671791076660156, 35.530601501464844, 6.183011531829834, 
70, 2979168850, -110.16384887695312, 8.365241050720215, 26.984230041503906, -1.324916124343872, -9.515046119689941, -3.5594775676727295, -38.439430236816406, 33.22836685180664, 1.4555319547653198, 
71, 2979177183, -110.51854705810547, 8.254168510437012, 26.712644577026367, -1.2320396900177002, -8.93864631652832, -3.815509796142578, -36.00055694580078, 33.765777587890625, -1.8035917282104492, 
72, 2979185516, -110.89422607421875, 8.13422679901123, 26.433359146118164, -1.3774020671844482, -8.898792266845703, -3.7059154510498047, -38.662025451660156, 35.08080291748047, -2.337803840637207, 
73, 2979193849, -111.29420471191406, 8.000410079956055, 26.150625228881836, -1.4752575159072876, -9.113582611083984, -3.7016007900238037, -41.379878997802734, 36.01743698120117, -3.405216693878174, 
74, 2979202182, -111.70092010498047, 7.862438201904297, 25.86773681640625, -1.5380585193634033, -9.310335159301758, -3.802518606185913, -42.47892761230469, 36.313350677490234, -3.6876790523529053, 
75, 2979210515, -112.10868072509766, 7.708624362945557, 25.582555770874023, -1.5816599130630493, -9.163143157958984, -3.948917865753174, -42.44116973876953, 37.237457275390625, -4.989551067352295, 
76, 2979218848, -112.53343963623047, 7.545714855194092, 25.285839080810547, -1.5844730138778687, -8.8631591796875, -3.9274697303771973, -44.6019401550293, 39.034481048583984, -5.285219669342041, 
77, 2979227181, -113.00089263916016, 7.36674690246582, 24.99129867553711, -1.5644420385360718, -8.711594581604004, -3.8471484184265137, -49.650569915771484, 39.521366119384766, -6.753947734832764, 
78, 2979235514, -113.50968933105469, 7.200966835021973, 24.689617156982422, -1.5781731605529785, -9.489206314086914, -3.6878652572631836, -54.82521057128906, 39.809051513671875, -4.703151226043701, 
79, 2979243847, -113.9648208618164, 7.0071916580200195, 24.416717529296875, -1.7885067462921143, -9.951407432556152, -3.7015414237976074, -48.707298278808594, 38.00328826904297, -8.719781875610352, 
80, 2979252180, -114.38162231445312, 6.803707599639893, 24.177579879760742, -1.846862554550171, -9.967476844787598, -3.5974299907684326, -44.92316436767578, 34.95209503173828, -11.215993881225586, 
81, 2979260513, -114.75531005859375, 6.587109088897705, 23.98623275756836, -1.984177589416504, -9.76244831085205, -3.5015861988067627, -40.3146858215332, 30.444923400878906, -14.674110412597656, 
82, 2979268846, -115.10637664794922, 6.361830234527588, 23.841020584106445, -1.9034210443496704, -9.426239013671875, -3.5879430770874023, -38.52189636230469, 26.058481216430664, -17.821245193481445, 
83, 2979277179, -115.45459747314453, 6.134738922119141, 23.72953987121582, -1.7607871294021606, -9.31619644165039, -3.6881234645843506, -38.49051284790039, 22.56020736694336, -19.48768424987793, 
84, 2979285512, -115.78355407714844, 5.916812896728516, 23.62934112548828, -1.6820346117019653, -9.262246131896973, -3.8447558879852295, -36.56949234008789, 21.051633834838867, -19.014541625976562, 
85, 2979293845, -116.09208679199219, 5.7215986251831055, 23.515798568725586, -1.7636398077011108, -9.15228271484375, -3.855705738067627, -33.81085968017578, 21.341611862182617, -15.66980266571045, 
86, 2979302178, -116.38107299804688, 5.547879219055176, 23.403398513793945, -1.7790809869766235, -9.187776565551758, -3.6975183486938477, -31.711198806762695, 20.218984603881836, -13.367615699768066, 
87, 2979310511, -116.63541412353516, 5.39792013168335, 23.309185028076172, -1.7074977159500122, -9.695639610290527, -3.8851191997528076, -27.619239807128906, 17.012516021728516, -11.617986679077148, 
88, 2979318844, -116.81304168701172, 5.25071382522583, 23.25721549987793, -1.3820366859436035, -9.553114891052246, -4.167279243469238, -19.094385147094727, 12.450881004333496, -13.589061737060547, 
89, 2979327177, -116.94793701171875, 5.103771209716797, 23.24632453918457, -1.1023411750793457, -8.85140323638916, -4.502928733825684, -14.255608558654785, 8.048727035522461, -15.684551239013672, 
90, 2979335510, -117.09164428710938, 4.965817928314209, 23.247180938720703, -0.778209388256073, -8.54542064666748, -4.7729315757751465, -15.610370635986328, 6.39204740524292, -15.397720336914062, 
91, 2979343843, -117.24290466308594, 4.838732719421387, 23.24431037902832, -0.816339373588562, -8.7234468460083, -4.951935768127441, -16.30979347229004, 6.183829307556152, -13.959891319274902, 
92, 2979352176, -117.39359283447266, 4.725849628448486, 23.228893280029297, -0.7615883350372314, -8.819336891174316, -5.058994293212891, -16.28266716003418, 6.817704677581787, -11.791900634765625, 
93, 2979360509, -117.55113220214844, 4.6219000816345215, 23.20459747314453, -0.7044609189033508, -9.060201644897461, -5.15177059173584, -16.853931427001953, 7.249393939971924, -10.273885726928711, 
94, 2979368842, -117.69956970214844, 4.523236274719238, 23.176742553710938, -0.6953602433204651, -9.378164291381836, -5.183584213256836, -15.901898384094238, 7.404745578765869, -9.547876358032227, 
95, 2979377175, -117.82637786865234, 4.426655292510986, 23.154815673828125, -0.6824678182601929, -9.416117668151855, -5.179030895233154, -13.19185733795166, 6.638211727142334, -9.580942153930664, 
96, 2979385508, -117.93608856201172, 4.337957859039307, 23.124868392944336, -0.7616153359413147, -9.501838684082031, -5.240732192993164, -11.248224258422852, 7.10600471496582, -8.335039138793945, 
97, 2979393841, -118.03849792480469, 4.255019187927246, 23.085237503051758, -0.7941693067550659, -9.467677116394043, -5.271904945373535, -10.111949920654297, 7.774919509887695, -7.109116077423096, 
98, 2979402174, -118.14126586914062, 4.177036762237549, 23.0242919921875, -0.7976784110069275, -9.251173973083496, -5.225870132446289, -10.150768280029297, 9.8030424118042, -5.424352645874023, 
99, 2979410507, -118.25810241699219, 4.105912208557129, 22.951671600341797, -0.7540303468704224, -9.10379409790039, -5.222485542297363, -11.569414138793945, 10.609712600708008, -3.9587831497192383, 
100, 2979418840, -118.39128875732422, 4.045173645019531, 22.858938217163086, -0.7546858787536621, -9.20669174194336, -5.219275951385498, -13.548203468322754, 12.191378593444824, -1.7525134086608887, 
101, 2979427173, -118.51252746582031, 3.991339683532715, 22.75299835205078, -0.9155836701393127, -9.036958694458008, -5.236746788024902, -11.832152366638184, 13.143946647644043, -0.18233495950698853, 
102, 2979435506, -118.63658905029297, 3.943394899368286, 22.63911247253418, -0.8993658423423767, -8.682806015014648, -5.159804821014404, -12.298563957214355, 13.687585830688477, 0.8653259873390198, 
103, 2979443839, -118.77880859375, 3.8915507793426514, 22.529375076293945, -0.9266791939735413, -9.006531715393066, -5.099670886993408, -14.3422212600708, 13.425628662109375, 0.30808812379837036, 
104, 2979452172, -118.89918518066406, 3.8293213844299316, 22.43846893310547, -1.0082664489746094, -9.121651649475098, -4.978702545166016, -12.065011024475098, 12.099808692932129, -1.8936223983764648, 
105, 2979460505, -119.01338195800781, 3.7678072452545166, 22.36697006225586, -1.06645929813385, -9.103424072265625, -4.865015506744385, -11.308609008789062, 9.982956886291504, -2.8601372241973877, 
106, 2979468838, -119.11041259765625, 3.701850652694702, 22.325519561767578, -1.056726336479187, -9.10605239868164, -4.905292510986328, -9.676470756530762, 7.143952369689941, -5.111040115356445, 
107, 2979477171, -119.19915008544922, 3.6379456520080566, 22.29807472229004, -0.9374204277992249, -8.958096504211426, -5.120965480804443, -8.60843276977539, 5.526540756225586, -5.6454548835754395, 
108, 2979485504, -119.27706909179688, 3.572523355484009, 22.26986312866211, -0.8829516768455505, -8.58815860748291, -5.1926116943359375, -7.4953413009643555, 5.743826389312744, -5.803981304168701, 
109, 2979493837, -119.38584899902344, 3.508655548095703, 22.23868179321289, -0.8806518912315369, -8.462942123413086, -5.211062431335449, -10.99698543548584, 5.933243274688721, -5.405167102813721, 
110, 2979502170, -119.51170349121094, 3.4511311054229736, 22.199058532714844, -0.8559508323669434, -8.383188247680664, -5.245605945587158, -13.168357849121094, 6.489201545715332, -4.2805495262146, 
111, 2979510503, -119.66883850097656, 3.3993711471557617, 22.154497146606445, -0.8612557649612427, -8.247635841369629, -5.095502853393555, -16.709793090820312, 6.633472442626953, -3.3210012912750244, 
112, 2979518836, -119.8497543334961, 3.3583714962005615, 22.111465454101562, -0.9268848896026611, -8.414154052734375, -5.054717063903809, -19.761863708496094, 5.878084659576416, -2.3157708644866943, 
113, 2979527169, -120.0372543334961, 3.314304828643799, 22.07709503173828, -1.0213627815246582, -8.672850608825684, -5.018319606781006, -20.431533813476562, 5.130468845367432, -3.087873935699463, 
114, 2979535502, -120.22269439697266, 3.2644028663635254, 22.05743980407715, -0.904382586479187, -8.717732429504395, -4.921329021453857, -20.471328735351562, 4.00486421585083, -4.599844932556152, 
115, 2979543835, -120.41444396972656, 3.216815233230591, 22.049287796020508, -0.926110029220581, -8.917616844177246, -4.945785999298096, -21.123401641845703, 2.6519579887390137, -4.999721527099609, 
116, 2979552168, -120.58462524414062, 3.1637041568756104, 22.068702697753906, -0.9305052757263184, -9.025331497192383, -5.005018711090088, -18.9080753326416, 0.1919659525156021, -7.275598526000977, 
117, 2979560501, -120.72322845458984, 3.1080920696258545, 22.104042053222656, -0.8437291383743286, -9.031790733337402, -5.124092102050781, -15.034072875976562, -1.3101427555084229, -8.466761589050293, 
118, 2979568834, -120.81895446777344, 3.052144765853882, 22.144176483154297, -0.859652042388916, -9.0404634475708, -5.354546070098877, -10.102818489074707, -1.7359791994094849, -8.832250595092773, 
119, 2979577167, -120.87932586669922, 2.9877634048461914, 22.181562423706055, -0.7641286849975586, -8.696322441101074, -5.39902925491333, -5.652215957641602, -0.9527983665466309, -9.500679016113281, 
120, 2979585500, -120.93650817871094, 2.9279093742370605, 22.19992446899414, -0.6220813989639282, -8.395663261413574, -5.4973907470703125, -5.334319114685059, 0.7625742554664612, -7.895589351654053, 
121, 2979593833, -120.9876937866211, 2.870248794555664, 22.19893455505371, -0.5852693319320679, -8.484601020812988, -5.513116359710693, -4.308237552642822, 2.59429931640625, -6.446334362030029, 
122, 2979602166, -121.01972198486328, 2.8066420555114746, 22.182666778564453, -0.5515398383140564, -8.385147094726562, -5.537130355834961, -2.1036717891693115, 4.565213203430176, -6.141654014587402, 
123, 2979610499, -121.04700469970703, 2.7389535903930664, 22.15108871459961, -0.4669601321220398, -8.230408668518066, -5.4987053871154785, -1.2586965560913086, 6.365138053894043, -5.583916664123535, 
124, 2979618832, -121.0670166015625, 2.665390968322754, 22.107341766357422, -0.4371655583381653, -8.537683486938477, -5.486936092376709, -0.5095183253288269, 8.008481979370117, -5.45980167388916, 
125, 2979627165, -121.07095336914062, 2.584879159927368, 22.060623168945312, -0.4010752737522125, -8.606871604919434, -5.438360691070557, 1.6199982166290283, 8.719061851501465, -5.958140850067139, 
126, 2979635498, -121.06153869628906, 2.499117612838745, 22.011213302612305, -0.3876698911190033, -8.634419441223145, -5.4135637283325195, 3.0364394187927246, 9.345199584960938, -6.363203525543213, 
127, 2979643831, -121.0481948852539, 2.4041249752044678, 21.961565017700195, -0.3469974100589752, -8.67491340637207, -5.3853983879089355, 3.6928818225860596, 9.916654586791992, -7.268283367156982, 
128, 2979652164, -121.02996826171875, 2.3081319332122803, 21.908092498779297, -0.29774901270866394, -8.589424133300781, -5.398403167724609, 4.094486713409424, 10.395743370056152, -7.166569232940674, 
129, 2979660497, -121.0152587890625, 2.211329221725464, 21.844377517700195, -0.3032362461090088, -8.537930488586426, -5.4403157234191895, 3.90693998336792, 11.469468116760254, -6.589993476867676, 
130, 2979668830, -121.00326538085938, 2.114541530609131, 21.769241333007812, -0.3242287337779999, -8.552374839782715, -5.481710910797119, 3.424175262451172, 12.667098045349121, -5.917170524597168, 
131, 2979677163, -120.99882507324219, 2.016392707824707, 21.685049057006836, -0.3576469421386719, -8.460792541503906, -5.420185565948486, 2.738380193710327, 13.655631065368652, -5.465694904327393, 
132, 2979685496, -121.00103759765625, 1.9238992929458618, 21.585874557495117, -0.3749248683452606, -8.451974868774414, -5.457220077514648, 1.7874000072479248, 14.873920440673828, -3.99062180519104, 
133, 2979693829, -121.0057373046875, 1.837097406387329, 21.476587295532227, -0.38572725653648376, -8.485339164733887, -5.379853248596191, 1.7066129446029663, 15.534409523010254, -2.7471017837524414, 
134, 2979702162, -121.00430297851562, 1.7597078084945679, 21.369470596313477, -0.4239811301231384, -8.563370704650879, -5.242245197296143, 2.220191240310669, 14.757387161254883, -1.9461313486099243, 
135, 2979710495, -120.98050689697266, 1.686111569404602, 21.276126861572266, -0.4403347671031952, -8.783771514892578, -5.161419868469238, 5.03680944442749, 13.080141067504883, -2.375349283218384, 
136, 2979718828, -120.92996215820312, 1.6148960590362549, 21.20723533630371, -0.4427885115146637, -8.570250511169434, -5.07156229019165, 7.95004415512085, 10.444793701171875, -3.6819825172424316, 
137, 2979727161, -120.8781509399414, 1.5510444641113281, 21.158021926879883, -0.43152686953544617, -8.361940383911133, -5.117979049682617, 8.223014831542969, 7.93672513961792, -4.112173080444336, 
138, 2979735494, -120.82791900634766, 1.49399995803833, 21.11834716796875, -0.4086260199546814, -8.311614036560059, -5.128939151763916, 7.797972202301025, 6.557884693145752, -4.038430213928223, 
139, 2979743827, -120.78409576416016, 1.44725501537323, 21.079145431518555, -0.37852102518081665, -8.309518814086914, -5.279351234436035, 7.222907066345215, 5.850060939788818, -2.980715751647949, 
140, 2979752160, -120.74807739257812, 1.406335473060608, 21.0332088470459, -0.3482893407344818, -8.40184497833252, -5.293473243713379, 6.104692459106445, 6.207891464233398, -2.0039682388305664, 
141, 2979760493, -120.72117614746094, 1.372950792312622, 20.98118019104004, -0.25601568818092346, -8.331934928894043, -5.403661727905273, 5.2220892906188965, 6.351804733276367, -0.8249319791793823, 
142, 2979768826, -120.71267700195312, 1.3417717218399048, 20.9197940826416, -0.16283823549747467, -8.296296119689941, -5.416554927825928, 2.838134765625, 7.203338623046875, -0.05951468646526337, 
143, 2979777159, -120.72666931152344, 1.3098081350326538, 20.85381507873535, -0.19930851459503174, -8.388938903808594, -5.396528720855713, 0.3514529764652252, 7.704584121704102, 0.1749708503484726, 
144, 2979785492, -120.74915313720703, 1.2753605842590332, 20.788192749023438, -0.2509835958480835, -8.463334083557129, -5.405976295471191, -0.8740859627723694, 7.841965675354004, -0.13273298740386963, 
145, 2979793825, -120.78677368164062, 1.2368794679641724, 20.717994689941406, -0.2951004207134247, -8.480923652648926, -5.449745178222656, -2.4805469512939453, 8.536866188049316, -0.23046408593654633, 
146, 2979802158, -120.84111785888672, 1.1946687698364258, 20.64311408996582, -0.3425823152065277, -8.490522384643555, -5.434295654296875, -4.687648773193359, 9.272150039672852, -0.3513120710849762, 
147, 2979810491, -120.91433715820312, 1.1472675800323486, 20.56194305419922, -0.4034503996372223, -8.75343132019043, -5.347622871398926, -6.733072757720947, 10.217057228088379, -0.4577648341655731, 
148, 2979818824, -120.97224426269531, 1.0907421112060547, 20.485483169555664, -0.49205702543258667, -8.943248748779297, -5.399693965911865, -5.125421524047852, 10.316824913024902, -1.70464026927948, 
149, 2979827157, -121.01365661621094, 1.0303810834884644, 20.42731285095215, -0.4640951156616211, -8.90945053100586, -5.0978875160217285, -2.9881434440612793, 8.654485702514648, -3.1867053508758545, 
150, 2979835490, -121.03907012939453, 0.9766098856925964, 20.39065933227539, -0.4546298384666443, -8.985860824584961, -5.081037998199463, -1.3277395963668823, 6.0565505027771, -3.865316867828369, 
151, 2979843823, -121.03506469726562, 0.9208388328552246, 20.378969192504883, -0.5178402066230774, -9.011274337768555, -5.233423233032227, 2.355881929397583, 3.594407081604004, -5.589436054229736, 
152, 2979852156, -121.01266479492188, 0.8674219250679016, 20.383522033691406, -0.4674900472164154, -8.842489242553711, -5.307734966278076, 4.324375629425049, 1.797171950340271, -6.376856803894043, 
153, 2979860489, -120.98619079589844, 0.8156255483627319, 20.38911247253418, -0.3959610164165497, -8.545769691467285, -5.390760898590088, 5.015254020690918, 1.569627285003662, -6.252793312072754, 
154, 2979868822, -120.96846771240234, 0.7650569081306458, 20.395233154296875, -0.3124828636646271, -8.320950508117676, -5.340362071990967, 3.762385368347168, 1.4566433429718018, -6.183840274810791, 
155, 2979877155, -120.96971130371094, 0.7170665264129639, 20.396041870117188, -0.34062087535858154, -8.484793663024902, -5.377504825592041, 1.6975963115692139, 1.826282262802124, -5.570584297180176, 
156, 2979885488, -120.97102355957031, 0.6690066456794739, 20.395252227783203, -0.3779350221157074, -8.629486083984375, -5.3347930908203125, 1.4872777462005615, 2.0102181434631348, -5.499990940093994, 
157, 2979893821, -120.97392272949219, 0.6237699389457703, 20.39383316040039, -0.328671395778656, -8.532918930053711, -5.346072196960449, 1.5053741931915283, 1.8890756368637085, -5.149012565612793, 
158, 2979902154, -120.97467041015625, 0.5810558795928955, 20.39321517944336, -0.28058284521102905, -8.546634674072266, -5.341268539428711, 1.5547584295272827, 1.6629016399383545, -4.958980083465576, 
159, 2979910487, -120.98087310791016, 0.5417171716690063, 20.39873504638672, -0.2790447175502777, -8.668268203735352, -5.405172824859619, 1.1014378070831299, 0.8117151260375977, -4.974630355834961, 
160, 2979918820, -120.98363494873047, 0.5024386644363403, 20.406747817993164, -0.23556174337863922, -8.70035457611084, -5.452976226806641, 1.306005835533142, 0.5633979439735413, -5.139547348022461, 
161, 2979927153, -120.98788452148438, 0.4680934548377991, 20.419172286987305, -0.21265743672847748, -8.661165237426758, -5.312201976776123, 1.331005334854126, -0.20473457872867584, -4.889782905578613, 
162, 2979935486, -120.99056243896484, 0.43937164545059204, 20.437576293945312, -0.17801843583583832, -8.623528480529785, -5.277234077453613, 1.3049557209014893, -1.1565083265304565, -4.693732261657715, 
163, 2979943819, -120.99327850341797, 0.4155173599720001, 20.46495819091797, -0.23489543795585632, -8.817415237426758, -5.324481964111328, 1.5033890008926392, -2.390089750289917, -4.736686706542969, 
164, 2979952152, -120.98595428466797, 0.394023060798645, 20.49757194519043, -0.22391866147518158, -8.840899467468262, -5.369014739990234, 2.4950826168060303, -3.0648844242095947, -4.828372955322266, 
165, 2979960485, -120.97380065917969, 0.37202510237693787, 20.533557891845703, -0.15997517108917236, -8.636918067932129, -5.355179786682129, 3.286024570465088, -3.388263702392578, -5.077702045440674, 
166, 2979968818, -120.95856475830078, 0.353358656167984, 20.56980323791504, -0.15701837837696075, -8.606053352355957, -5.408480167388916, 3.443180561065674, -3.616217613220215, -4.761378765106201, 
167, 2979977151, -120.93082427978516, 0.3382764756679535, 20.6013126373291, -0.1535089910030365, -8.648919105529785, -5.453085422515869, 5.161101341247559, -3.3556697368621826, -4.086956024169922, 
168, 2979985484, -120.8970947265625, 0.32346755266189575, 20.630300521850586, -0.13019618391990662, -8.500103950500488, -5.437210559844971, 5.670325756072998, -3.11037540435791, -3.9156100749969482, 
169, 2979993817, -120.87248229980469, 0.3114957809448242, 20.64781951904297, -0.13623280823230743, -8.327749252319336, -5.467724323272705, 4.7962141036987305, -2.1103439331054688, -2.904282808303833, 
170, 2980002150, -120.86335754394531, 0.30043235421180725, 20.656763076782227, -0.11633922159671783, -8.38315200805664, -5.339719295501709, 2.7347419261932373, -1.2782782316207886, -2.2939083576202393, 
171, 2980010483, -120.86811828613281, 0.2887389063835144, 20.658451080322266, -0.1669485867023468, -8.524022102355957, -5.304508686065674, 1.2850019931793213, -0.4993494749069214, -1.9027788639068604, 
172, 2980018816, -120.87320709228516, 0.27557530999183655, 20.65902328491211, -0.17648586630821228, -8.637086868286133, -5.283187389373779, 1.0342772006988525, -0.28696906566619873, -1.994260311126709, 
173, 2980027149, -120.88037872314453, 0.2604770064353943, 20.661745071411133, -0.17130358517169952, -8.694733619689941, -5.223751068115234, 0.9976360201835632, -0.3936651647090912, -2.317396640777588, 
174, 2980035482, -120.8827896118164, 0.24296848475933075, 20.66676902770996, -0.10986848175525665, -8.591259956359863, -5.266125202178955, 1.3525724411010742, -0.47755172848701477, -2.7158005237579346, 
175, 2980043815, -120.8903579711914, 0.22407092154026031, 20.673067092895508, -0.105818010866642, -8.58013916015625, -5.317798137664795, 0.9427831768989563, -0.5292797684669495, -2.931741237640381, 
176, 2980052148, -120.89920043945312, 0.203974649310112, 20.680313110351562, -0.0473812073469162, -8.561966896057129, -5.33866548538208, 0.581161379814148, -0.5471329092979431, -3.1194937229156494, 
177, 2980060481, -120.91071319580078, 0.18260371685028076, 20.68521499633789, -0.009387746453285217, -8.54259204864502, -5.41629695892334, 0.4750927984714508, -0.22849176824092865, -3.0999755859375, 
178, 2980068814, -120.92160034179688, 0.16042514145374298, 20.68192481994629, -0.010784359648823738, -8.504493713378906, -5.436309337615967, 0.33805665373802185, 0.6679424047470093, -2.683180809020996, 
179, 2980077147, -120.93910217285156, 0.13697956502437592, 20.672630310058594, -0.027882564812898636, -8.554366111755371, -5.411675453186035, -0.23351216316223145, 1.3600389957427979, -2.43953800201416, 
180, 2980085480, -120.95777130126953, 0.11086343973875046, 20.665796279907227, -0.0580642893910408, -8.570052146911621, -5.339592456817627, -0.5969781875610352, 1.2767927646636963, -2.867628812789917, 
181, 2980093813, -120.98030090332031, 0.08435884863138199, 20.661701202392578, -0.07654470205307007, -8.559122085571289, -5.275415897369385, -0.836061418056488, 1.0152969360351562, -3.072824716567993, 
182, 2980102146, -121.00371551513672, 0.058224815875291824, 20.662466049194336, -0.13898742198944092, -8.64441204071045, -5.2503814697265625, -1.1654607057571411, 0.49893972277641296, -3.337496519088745, 
183, 2980110479, -121.02583312988281, 0.035280492156744, 20.665727615356445, -0.1564064919948578, -8.62896728515625, -5.20781946182251, -0.7925171852111816, 0.04105961695313454, -3.1601176261901855, 
184, 2980118812, -121.04947662353516, 0.014232408255338669, 20.67139434814453, -0.09949245303869247, -8.551514625549316, -5.299445629119873, -1.1933672428131104, -0.31825685501098633, -3.117482900619507, 
185, 2980127145, -121.0757064819336, -0.004949325695633888, 20.674955368041992, -0.05438604578375816, -8.448433876037598, -5.377592086791992, -1.2836062908172607, -0.21984699368476868, -2.7912347316741943, 
186, 2980135478, -121.10672760009766, -0.023052744567394257, 20.67011260986328, -0.025838661938905716, -8.404924392700195, -5.416229724884033, -2.079824686050415, 0.5820706486701965, -2.163172960281372, 
187, 2980143811, -121.14944458007812, -0.04053888097405434, 20.658201217651367, 0.015253700315952301, -8.541202545166016, -5.372730255126953, -3.260166645050049, 1.2690829038619995, -1.656690239906311, 
188, 2980152144, -121.18946838378906, -0.056632522493600845, 20.643814086914062, 0.01432857010513544, -8.632254600524902, -5.3520402908325195, -3.161039352416992, 1.4381365776062012, -1.361946940422058, 
189, 2980160477, -121.22933959960938, -0.07193045318126678, 20.6324520111084, -0.03601035103201866, -8.623043060302734, -5.307676792144775, -2.9208550453186035, 1.0779750347137451, -1.4637383222579956, 
190, 2980168810, -121.27075958251953, -0.08639594912528992, 20.626300811767578, -0.07688608765602112, -8.672691345214844, -5.243880748748779, -3.326622486114502, 0.493368536233902, -1.7032694816589355, 
191, 2980177143, -121.30986022949219, -0.1004328653216362, 20.62759017944336, -0.06213782727718353, -8.758342742919922, -5.282320976257324, -2.827658176422119, -0.29704830050468445, -2.1195526123046875, 
192, 2980185476, -121.33798217773438, -0.11515534669160843, 20.636388778686523, -0.08996086567640305, -8.65695571899414, -5.266990661621094, -1.727872371673584, -1.0220719575881958, -2.662151336669922, 
193, 2980193809, -121.36441802978516, -0.12798163294792175, 20.653488159179688, -0.05244627594947815, -8.499296188354492, -5.295090198516846, -1.3040205240249634, -1.991224765777588, -2.9823672771453857, 
194, 2980202142, -121.38679504394531, -0.13709910213947296, 20.671680450439453, -0.11286203563213348, -8.468022346496582, -5.345480442047119, -1.0366592407226562, -2.3316378593444824, -2.6736648082733154, 
195, 2980210475, -121.40923309326172, -0.14667333662509918, 20.692651748657227, -0.12197113782167435, -8.367459297180176, -5.322699546813965, -0.8227548003196716, -2.5879085063934326, -2.89225697517395, 
196, 2980218808, -121.43231201171875, -0.15534089505672455, 20.712797164916992, -0.11424887925386429, -8.319295883178711, -5.294418811798096, -1.1187528371810913, -2.5587081909179688, -2.7504563331604004, 
197, 2980227141, -121.46017456054688, -0.16380609571933746, 20.737701416015625, -0.071875661611557, -8.375205993652344, -5.246546268463135, -1.4708207845687866, -3.056546926498413, -3.0289857387542725, 
198, 2980235474, -121.48573303222656, -0.17084038257598877, 20.766271591186523, -0.018611477687954903, -8.397416114807129, -5.332010269165039, -1.4125481843948364, -3.5216498374938965, -3.112513780593872, 
199, 2980243807, -121.51360321044922, -0.17855766415596008, 20.792667388916016, -0.0479196198284626, -8.474535942077637, -5.356427192687988, -1.4713714122772217, -3.2522265911102295, -3.04951548576355, 
200, 2980252140, -121.54251861572266, -0.18944162130355835, 20.818017959594727, -0.043593570590019226, -8.400420188903809, -5.371495246887207, -1.8165488243103027, -2.9483649730682373, -3.306042194366455, 
201, 2980260473, -121.57810974121094, -0.20010359585285187, 20.836441040039062, -0.005350674968212843, -8.407304763793945, -5.371633529663086, -2.3984787464141846, -2.249711275100708, -2.8522861003875732, 
202, 2980268806, -121.61437225341797, -0.20827682316303253, 20.85137176513672, -0.06771288812160492, -8.571661949157715, -5.443104267120361, -2.6998043060302734, -2.050201654434204, -2.37662935256958, 
203, 2980277139, -121.64962005615234, -0.21583107113838196, 20.86511993408203, -0.016076460480690002, -8.387714385986328, -5.414342880249023, -2.3574700355529785, -1.9644708633422852, -2.2445881366729736, 
204, 2980285472, -121.69121551513672, -0.21555615961551666, 20.87177848815918, 0.01251620426774025, -8.334060668945312, -5.4480204582214355, -3.341312885284424, -1.7345831394195557, -0.993588924407959, 
205, 2980293805, -121.73716735839844, -0.21173977851867676, 20.874235153198242, -0.05810956656932831, -8.489710807800293, -5.435699462890625, -3.6472744941711426, -1.5272356271743774, -0.3720083236694336, 
206, 2980302138, -121.77461242675781, -0.20333939790725708, 20.87523651123047, -0.08997881412506104, -8.537111282348633, -5.392786502838135, -2.8487257957458496, -1.6713160276412964, 0.19113342463970184, 
207, 2980310471, -121.8082046508789, -0.19402383267879486, 20.881322860717773, -0.06607537716627121, -8.445120811462402, -5.319803714752197, -2.1619181632995605, -2.2436530590057373, -0.04239155724644661, 
208, 2980318804, -121.83768463134766, -0.1806716024875641, 20.889976501464844, -0.09366921335458755, -8.551251411437988, -5.256393909454346, -1.888755202293396, -2.7655816078186035, 0.21203462779521942, 
209, 2980327137, -121.8580093383789, -0.16376768052577972, 20.904130935668945, -0.13120366632938385, -8.528404235839844, -5.361109733581543, -0.5658825635910034, -3.5452024936676025, 0.21833574771881104, 
210, 2980335470, -121.87344360351562, -0.14791987836360931, 20.92191505432129, -0.1571127325296402, -8.402521133422852, -5.380165100097656, -0.2015455961227417, -3.854161024093628, -0.11356069892644882, 
211, 2980343803, -121.89893341064453, -0.13067017495632172, 20.941314697265625, -0.09803298860788345, -8.434643745422363, -5.415435791015625, -1.1878217458724976, -4.104335308074951, -0.08446294069290161, 
212, 2980352136, -121.92647552490234, -0.11265379190444946, 20.960174560546875, -0.013529898598790169, -8.42127799987793, -5.435967445373535, -1.6550511121749878, -4.101902008056641, 0.036372218281030655, 
213, 2980360469, -121.96356201171875, -0.09180973470211029, 20.976776123046875, 0.04805506765842438, -8.358231544494629, -5.5188093185424805, -2.5808517932891846, -4.047215938568115, 0.45567724108695984, 
214, 2980368802, -122.01319122314453, -0.06760522723197937, 20.988447189331055, 0.05971818417310715, -8.478401184082031, -5.567807674407959, -4.307430744171143, -3.763768434524536, 1.1204434633255005, 
215, 2980377135, -122.06900787353516, -0.04031434282660484, 20.991212844848633, 0.09125593304634094, -8.609609603881836, -5.624877452850342, -4.830243110656738, -3.050642728805542, 1.9879463911056519, 
216, 2980385468, -122.12132263183594, -0.014401455409824848, 20.987043380737305, 0.15338583290576935, -8.684850692749023, -5.693610191345215, -4.636112689971924, -2.2672314643859863, 2.2967004776000977, 
217, 2980393801, -122.17269134521484, 0.014964092522859573, 20.97496223449707, 0.12087441235780716, -8.691697120666504, -5.6837310791015625, -4.29224157333374, -1.6797431707382202, 3.1429946422576904, 
218, 2980402134, -122.21570587158203, 0.04559578374028206, 20.955150604248047, 0.11267275363206863, -8.652942657470703, -5.636505603790283, -3.5165138244628906, -0.9838811755180359, 3.7756662368774414, 
219, 2980410467, -122.2599105834961, 0.07733740657567978, 20.9305419921875, 0.03767092898488045, -8.804891586303711, -5.62230110168457, -3.4309887886047363, -0.5682134032249451, 4.186723709106445, 
220, 2980418800, -122.2911376953125, 0.10661846399307251, 20.902305603027344, 0.0025621200911700726, -8.832575798034668, -5.590978622436523, -2.0976650714874268, -0.04921775311231613, 4.178552627563477, 
221, 2980427133, -122.30508422851562, 0.13593626022338867, 20.87368392944336, 0.002760447794571519, -8.556512832641602, -5.62598180770874, 0.20570793747901917, -0.011539212428033352, 4.198685169219971, 
222, 2980435466, -122.32136535644531, 0.16743634641170502, 20.8414249420166, 0.013032549992203712, -8.624762535095215, -5.642369747161865, -0.2989949882030487, 0.21207305788993835, 4.660344123840332, 
223, 2980443799, -122.32501220703125, 0.198455810546875, 20.803667068481445, -0.02472766302525997, -8.639089584350586, -5.687277317047119, 1.446282148361206, 0.8040308356285095, 4.960273265838623, 
224, 2980452132, -122.31621551513672, 0.23129472136497498, 20.760902404785156, -0.06221192330121994, -8.422327041625977, -5.6172966957092285, 2.7205522060394287, 1.1918432712554932, 5.471418857574463, 
225, 2980460465, -122.31676483154297, 0.2683642506599426, 20.71807861328125, -0.13937664031982422, -8.408902168273926, -5.486762046813965, 1.828177809715271, 0.9300145506858826, 5.900022029876709, 
226, 2980468798, -122.3165054321289, 0.30798837542533875, 20.681663513183594, -0.20584242045879364, -8.579298973083496, -5.434500217437744, 1.698684811592102, 0.1121903508901596, 5.750600814819336, 
227, 2980477131, -122.31196594238281, 0.3485279381275177, 20.655323028564453, -0.2371951937675476, -8.486629486083984, -5.406296730041504, 2.432955265045166, -0.9647601842880249, 5.193580627441406, 
228, 2980485464, -122.30912780761719, 0.3884691596031189, 20.637409210205078, -0.27232038974761963, -8.523015022277832, -5.384922981262207, 1.9998698234558105, -1.782801866531372, 4.5968708992004395, 
229, 2980493797, -122.30641174316406, 0.4282662272453308, 20.629207611083984, -0.23849841952323914, -8.487260818481445, -5.429991722106934, 2.2028114795684814, -2.7576286792755127, 3.950035572052002, 
230, 2980502130, -122.30589294433594, 0.47335800528526306, 20.625322341918945, -0.18984852731227875, -8.557209014892578, -5.474541187286377, 1.710864543914795, -3.535916805267334, 4.220393657684326, 
231, 2980510463, -122.30113983154297, 0.5213086605072021, 20.62472915649414, -0.17984715104103088, -8.484030723571777, -5.4771833419799805, 2.440178394317627, -4.050020217895508, 4.288655757904053, 
232, 2980518796, -122.29533386230469, 0.5741168856620789, 20.622154235839844, -0.20134350657463074, -8.535454750061035, -5.509247303009033, 2.3446884155273438, -4.163362979888916, 4.920123100280762, 
233, 2980527129, -122.29035949707031, 0.6296681761741638, 20.61897087097168, -0.16627050936222076, -8.544095039367676, -5.529787063598633, 2.473067045211792, -4.2720441818237305, 5.224752902984619, 
234, 2980535462, -122.2779312133789, 0.6869465112686157, 20.612749099731445, -0.14580324292182922, -8.437928199768066, -5.587821960449219, 3.1450700759887695, -4.077927589416504, 5.607085704803467, 
235, 2980543795, -122.2761001586914, 0.7444108724594116, 20.603572845458984, -0.11922523379325867, -8.3123779296875, -5.606790542602539, 2.101571559906006, -3.786027669906616, 5.80339241027832, 
236, 2980552128, -122.28877258300781, 0.7985391020774841, 20.59088897705078, -0.129414901137352, -8.38077163696289, -5.616044998168945, 0.14425936341285706, -3.219978094100952, 5.701754093170166, 
237, 2980560461, -122.3104019165039, 0.8469718098640442, 20.57929229736328, -0.15271586179733276, -8.344672203063965, -5.638120651245117, -0.7050702571868896, -2.964118003845215, 5.041368007659912, 
238, 2980568794, -122.34028625488281, 0.8938621878623962, 20.566640853881836, -0.15787456929683685, -8.301671981811523, -5.626791954040527, -1.9183526039123535, -2.7638018131256104, 4.964794635772705, 
239, 2980577127, -122.37510681152344, 0.9445095062255859, 20.55169105529785, -0.1989806741476059, -8.284875869750977, -5.676852703094482, -2.276746988296509, -2.771101474761963, 5.478487968444824, 
240, 2980585460, -122.41163635253906, 0.9957218766212463, 20.535337448120117, -0.24628156423568726, -8.280974388122559, -5.64984130859375, -2.7057344913482666, -2.6740493774414062, 5.638743877410889, 
241, 2980593793, -122.45779418945312, 1.0510636568069458, 20.517776489257812, -0.32693877816200256, -8.325516700744629, -5.541668891906738, -3.6244399547576904, -2.8150815963745117, 6.122788906097412, 
242, 2980602126, -122.51070404052734, 1.108697772026062, 20.5045166015625, -0.39551031589508057, -8.420267105102539, -5.496744155883789, -4.676352500915527, -3.4127252101898193, 6.08414888381958, 
243, 2980610459, -122.56426239013672, 1.1681679487228394, 20.493450164794922, -0.46256890892982483, -8.583980560302734, -5.522647380828857, -4.522154808044434, -3.752523899078369, 6.114784240722656, 
244, 2980618792, -122.59989166259766, 1.2284882068634033, 20.483055114746094, -0.43575194478034973, -8.572096824645996, -5.508105278015137, -2.605710983276367, -3.886141300201416, 6.167537689208984, 
245, 2980627125, -122.63137817382812, 1.292138934135437, 20.47250747680664, -0.44508931040763855, -8.434494972229004, -5.476962566375732, -1.8712866306304932, -4.0835113525390625, 6.497435569763184, 
246, 2980635458, -122.66317749023438, 1.3580626249313354, 20.45742416381836, -0.4743313193321228, -8.528646469116211, -5.51784610748291, -2.130873680114746, -3.7830429077148438, 7.034424304962158, 
247, 2980643791, -122.69187927246094, 1.4221574068069458, 20.442554473876953, -0.4496815502643585, -8.636951446533203, -5.543791770935059, -1.5224335193634033, -3.682687282562256, 6.817114353179932, 
248, 2980652124, -122.71363830566406, 1.4778650999069214, 20.429738998413086, -0.41167372465133667, -8.539158821105957, -5.579930782318115, -0.9285800457000732, -3.356297254562378, 5.854158878326416, 
249, 2980660457, -122.73738098144531, 1.528435230255127, 20.418621063232422, -0.38157472014427185, -8.373760223388672, -5.618385314941406, -0.9383136034011841, -3.191546678543091, 5.201662063598633, 
250, 2980668790, -122.76428985595703, 1.5723499059677124, 20.405988693237305, -0.33895716071128845, -8.263957023620605, -5.629225730895996, -1.5433344841003418, -2.6153926849365234, 4.648586750030518, 
251, 2980677123, -122.79688262939453, 1.611548900604248, 20.389324188232422, -0.3892575204372406, -8.245877265930176, -5.6480536460876465, -1.9802364110946655, -1.8968364000320435, 4.411936283111572, 
252, 2980685456, -122.83123779296875, 1.6453651189804077, 20.369441986083984, -0.451225221157074, -8.312764167785645, -5.608815670013428, -2.4088523387908936, -1.2323395013809204, 4.100378036499023, 
253, 2980693789, -122.86738586425781, 1.6741801500320435, 20.34606170654297, -0.486487478017807, -8.324816703796387, -5.624377250671387, -2.3791654109954834, -0.5502322316169739, 3.7997946739196777, 
254, 2980702122, -122.90421295166016, 1.6960002183914185, 20.320417404174805, -0.54558265209198, -8.400985717773438, -5.61739444732666, -2.6862292289733887, 0.12238482385873795, 3.2658920288085938, 
255, 2980710455, -122.93852996826172, 1.7130634784698486, 20.294374465942383, -0.5786451697349548, -8.314433097839355, -5.618656158447266, -2.145461320877075, 0.4784995913505554, 2.7879812717437744, 
256, 2980718788, -122.97480010986328, 1.7276372909545898, 20.269617080688477, -0.533380925655365, -8.241955757141113, -5.641517162322998, -2.6190686225891113, 0.5033709406852722, 2.4809694290161133, 
257, 2980727121, -123.02251434326172, 1.7462871074676514, 20.246013641357422, -0.4947826564311981, -8.280234336853027, -5.631312370300293, -3.760617733001709, 0.12594519555568695, 2.787776231765747, 
258, 2980735454, -123.0695571899414, 1.7628170251846313, 20.228199005126953, -0.5338955521583557, -8.331070899963379, -5.518996715545654, -3.9355123043060303, -0.32918134331703186, 2.224519729614258, 
259, 2980743787, -123.11825561523438, 1.7816250324249268, 20.212696075439453, -0.5790943503379822, -8.527908325195312, -5.524801731109619, -3.9052107334136963, -0.7005365490913391, 2.2757480144500732, 
260, 2980752120, -123.14959716796875, 1.8038393259048462, 20.202144622802734, -0.6160150170326233, -8.668551445007324, -5.48319673538208, -2.0771608352661133, -1.436344027519226, 2.3197405338287354, 
261, 2980760453, -123.16722106933594, 1.8266056776046753, 20.202333450317383, -0.5452777147293091, -8.565858840942383, -5.433340072631836, -0.23360180854797363, -2.537627935409546, 1.6413729190826416, 
262, 2980768786, -123.17394256591797, 1.8527699708938599, 20.208454132080078, -0.5292915105819702, -8.477058410644531, -5.490494251251221, 0.8140458464622498, -3.370499849319458, 1.6234298944473267, 
263, 2980777119, -123.18429565429688, 1.8817181587219238, 20.21820640563965, -0.46116766333580017, -8.3641996383667, -5.578388690948486, 0.5954285264015198, -3.9054155349731445, 1.6292959451675415, 
264, 2980785452, -123.20621490478516, 1.908422589302063, 20.229610443115234, -0.3642329275608063, -8.210726737976074, -5.639553070068359, -1.0332142114639282, -3.9376895427703857, 1.3301984071731567, 
265, 2980793785, -123.25485229492188, 1.9360511302947998, 20.239730834960938, -0.2548333406448364, -7.9064130783081055, -5.683971405029297, -4.00180196762085, -3.855032205581665, 1.4691812992095947, 
266, 2980802118, -123.3315658569336, 1.9622433185577393, 20.243240356445312, -0.21062731742858887, -7.838503360748291, -5.818890571594238, -7.576421737670898, -3.115548849105835, 1.7938159704208374, 
267, 2980810451, -123.42788696289062, 1.9851614236831665, 20.24419593811035, -0.14608193933963776, -7.986611366271973, -5.804704189300537, -9.682295799255371, -2.633028030395508, 1.5951521396636963, 
268, 2980818784, -123.52214050292969, 2.0028417110443115, 20.245920181274414, -0.1573096662759781, -8.170528411865234, -5.780052185058594, -9.674484252929688, -2.381086587905884, 1.0511826276779175, 
269, 2980827117, -123.60182189941406, 2.0177886486053467, 20.251005172729492, -0.18802206218242645, -8.25976848602295, -5.827696800231934, -7.698986530303955, -2.523937463760376, 0.5221206545829773, 
270, 2980835450, -123.65943908691406, 2.0297036170959473, 20.25882911682129, -0.20818354189395905, -8.191415786743164, -5.75026273727417, -5.306206703186035, -2.612562417984009, 0.06777526438236237, 
271, 2980843783, -123.71359252929688, 2.042855978012085, 20.26709747314453, -0.23241998255252838, -8.099987983703613, -5.768905162811279, -4.646473407745361, -2.7262513637542725, 0.12816081941127777, 
272, 2980852116, -123.77033996582031, 2.0536649227142334, 20.273250579833984, -0.20448938012123108, -8.094541549682617, -5.792704105377197, -5.191749572753906, -2.3726978302001953, 0.0654059499502182, 
273, 2980860449, -123.82465362548828, 2.0642356872558594, 20.275348663330078, -0.24539591372013092, -8.07949161529541, -5.741578578948975, -4.6404290199279785, -1.9422507286071777, 0.28135958313941956, 
274, 2980868782, -123.8731460571289, 2.074310302734375, 20.277318954467773, -0.29054683446884155, -7.985321998596191, -5.750049114227295, -4.1825103759765625, -1.9083757400512695, 0.26910316944122314, 
275, 2980877115, -123.92049407958984, 2.080721139907837, 20.274883270263672, -0.33866432309150696, -8.216588973999023, -5.740187168121338, -3.7839648723602295, -1.2160100936889648, 0.16832394897937775, 
276, 2980885448, -123.94474029541016, 2.0789666175842285, 20.2721004486084, -0.3149825930595398, -8.242478370666504, -5.803101539611816, -1.2525103092193604, -0.6444028615951538, -0.5912020802497864, 
277, 2980893781, -123.97012329101562, 2.0744950771331787, 20.263792037963867, -0.31511133909225464, -8.041326522827148, -5.753260612487793, -1.1190474033355713, 0.09687303751707077, -0.5208014249801636, 
278, 2980902114, -123.99771118164062, 2.0699145793914795, 20.247011184692383, -0.2795161008834839, -8.059832572937012, -5.755781173706055, -1.5952417850494385, 0.937404215335846, 0.06518823653459549, 
279, 2980910447, -124.02719116210938, 2.065887212753296, 20.2253475189209, -0.34100690484046936, -8.161568641662598, -5.743333339691162, -1.550916075706482, 1.3953737020492554, 0.4230062663555145, 
280, 2980918780, -124.04936218261719, 2.0615012645721436, 20.20255470275879, -0.3667544722557068, -8.127315521240234, -5.702791690826416, -0.9175274968147278, 1.5211397409439087, 0.4907047152519226, 
281, 2980927113, -124.07108306884766, 2.0522916316986084, 20.178739547729492, -0.3585526645183563, -8.106890678405762, -5.675689697265625, -0.6116295456886292, 1.9538283348083496, 0.0524323396384716, 
282, 2980935446, -124.08186340332031, 2.032594680786133, 20.15387725830078, -0.32498860359191895, -8.105765342712402, -5.7403035163879395, 0.45727819204330444, 2.755387544631958, -0.8900691270828247, 
283, 2980943779, -124.08488464355469, 2.0016465187072754, 20.12556266784668, -0.3270784616470337, -8.115861892700195, -5.675415992736816, 1.6505942344665527, 3.862562894821167, -1.8026275634765625, 
284, 2980952112, -124.0858383178711, 1.9626410007476807, 20.094308853149414, -0.2562045156955719, -7.949859619140625, -5.733847618103027, 1.6615442037582397, 4.689812183380127, -2.3802666664123535, 
285, 2980960445, -124.07977294921875, 1.9173009395599365, 20.055328369140625, -0.18448089063167572, -8.051285743713379, -5.788516044616699, 2.7803354263305664, 5.891645431518555, -2.514242172241211, 
286, 2980968778, -124.05732727050781, 1.860512614250183, 20.010265350341797, -0.18575245141983032, -8.102569580078125, -5.925238132476807, 4.5155463218688965, 7.2561421394348145, -3.22196364402771, 
287, 2980977111, -124.03083801269531, 1.7928149700164795, 19.959442138671875, -0.20746000111103058, -8.00649356842041, -5.825898170471191, 5.268566608428955, 8.568731307983398, -3.944861650466919, 
288, 2980985444, -124.01785278320312, 1.7243871688842773, 19.905397415161133, -0.20101942121982574, -8.04278564453125, -5.811798095703125, 3.403287172317505, 8.928560256958008, -3.783414602279663, 
289, 2980993777, -124.00947570800781, 1.6580052375793457, 19.855663299560547, -0.21065881848335266, -8.197124481201172, -5.826904773712158, 3.0792152881622314, 8.369887351989746, -3.8906614780426025, 
290, 2981002110, -124.00894165039062, 1.5964081287384033, 19.812870025634766, -0.2787036895751953, -8.12325382232666, -5.845228672027588, 1.8531644344329834, 7.3511576652526855, -3.859745502471924, 
291, 2981010443, -124.01873779296875, 1.5369982719421387, 19.771881103515625, -0.3042367398738861, -8.180109977722168, -5.732541561126709, 0.8609458208084106, 7.031415939331055, -3.7834408283233643, 
292, 2981018776, -124.03369903564453, 1.4834301471710205, 19.73455810546875, -0.4158150553703308, -8.098918914794922, -5.698071002960205, -0.0312877893447876, 6.269596576690674, -3.425865888595581, 
293, 2981027109, -124.06687927246094, 1.4397504329681396, 19.698884963989258, -0.5801162719726562, -8.108000755310059, -5.556931018829346, -1.9718989133834839, 5.44912052154541, -2.5684285163879395, 
294, 2981035442, -124.11018371582031, 1.407821536064148, 19.6649169921875, -0.664412796497345, -8.300161361694336, -5.504760265350342, -3.451979160308838, 4.483554363250732, -1.4932074546813965, 
295, 2981043775, -124.14210510253906, 1.3868603706359863, 19.633548736572266, -0.669262707233429, -8.626477241516113, -5.539854526519775, -1.8352470397949219, 3.497265100479126, -0.5949546098709106, 
296, 2981052108, -124.14208984375, 1.3713170289993286, 19.610309600830078, -0.5630591511726379, -8.591275215148926, -5.580455303192139, 1.7141302824020386, 2.3158087730407715, -0.5826086401939392, 
297, 2981060441, -124.1489486694336, 1.3572922945022583, 19.59666633605957, -0.515688419342041, -8.627554893493652, -5.577758312225342, 1.1149876117706299, 1.2716954946517944, -1.1028079986572266, 
298, 2981068774, -124.14800262451172, 1.3512861728668213, 19.58851432800293, -0.5663509964942932, -8.929965019226074, -5.642542362213135, 1.7797026634216309, 0.17620031535625458, -0.6497690677642822, 
299, 2981077107, -124.134765625, 1.3523818254470825, 19.589279174804688, -0.5332448482513428, -8.897125244140625, -5.678906440734863, 3.4790148735046387, -1.1747711896896362, -0.5726574063301086, 
300, 2981085440, -124.1108627319336, 1.3560993671417236, 19.59664535522461, -0.43501895666122437, -8.795350074768066, -5.7314348220825195, 4.492852210998535, -2.0199897289276123, -0.7303387522697449, 
301, 2981093773, -124.0941162109375, 1.3679170608520508, 19.610843658447266, -0.3704181909561157, -8.848397254943848, -5.8194804191589355, 3.8566839694976807, -3.2297885417938232, -0.41475850343704224, 
302, 2981102106, -124.07291412353516, 1.3830547332763672, 19.62983512878418, -0.37530285120010376, -8.688425064086914, -5.831955432891846, 4.134598731994629, -3.9431450366973877, -0.3747234642505646, 
303, 2981110439, -124.04657745361328, 1.401582956314087, 19.651033401489258, -0.35856348276138306, -8.613919258117676, -5.822850704193115, 4.9845170974731445, -4.375372409820557, -0.21813081204891205, 
304, 2981118772, -124.00076293945312, 1.4201562404632568, 19.67090606689453, -0.3510410487651825, -8.566164016723633, -5.896966457366943, 7.084397792816162, -4.261721611022949, -0.08949613571166992, 
305, 2981127105, -123.95073699951172, 1.4413526058197021, 19.687917709350586, -0.24723291397094727, -8.30514144897461, -5.942500591278076, 7.833870887756348, -4.13636589050293, 0.33368945121765137, 
306, 2981135438, -123.89177703857422, 1.4647647142410278, 19.692176818847656, -0.2679072916507721, -8.319502830505371, -5.956552505493164, 8.705883026123047, -3.030318021774292, 1.4413515329360962, 
307, 2981143771, -123.8358383178711, 1.4942705631256104, 19.679439544677734, -0.43310126662254333, -8.378426551818848, -5.894018173217773, 8.635891914367676, -1.7257977724075317, 3.1562376022338867, 
308, 2981152104, -123.76714324951172, 1.5127058029174805, 19.66688346862793, -0.25378918647766113, -8.196114540100098, -5.765455722808838, 9.928437232971191, -1.016821265220642, 2.0739336013793945, 
309, 2981160437, -123.71017456054688, 1.532981514930725, 19.646305084228516, -0.41526687145233154, -8.525117874145508, -5.672380447387695, 8.787169456481934, -0.32101044058799744, 2.7559125423431396, 
310, 2981168770, -123.63768005371094, 1.5519146919250488, 19.627893447875977, -0.39035356044769287, -8.424274444580078, -5.615456581115723, 10.403657913208008, -0.46009573340415955, 2.513935089111328, 
311, 2981177103, -123.57683563232422, 1.572122573852539, 19.611679077148438, -0.4635641574859619, -8.534419059753418, -5.588917255401611, 9.24287223815918, -0.7440552115440369, 2.4581470489501953, 
312, 2981185436, -123.50416564941406, 1.586531400680542, 19.602386474609375, -0.3680717647075653, -8.380369186401367, -5.633853912353516, 10.396371841430664, -1.0655524730682373, 1.4527755975723267, 
313, 2981193769, -123.44283294677734, 1.6029599905014038, 19.595264434814453, -0.32679665088653564, -8.195014953613281, -5.594176292419434, 9.26907730102539, -1.3949387073516846, 1.4765329360961914, 
314, 2981202102, -123.3851318359375, 1.6115719079971313, 19.5842227935791, -0.2908599376678467, -8.119769096374512, -5.651078701019287, 8.606024742126465, -0.5011553764343262, 0.9901695251464844, 
315, 2981210435, -123.32537841796875, 1.6143571138381958, 19.571380615234375, -0.26614290475845337, -8.125076293945312, -5.663640975952148, 9.094425201416016, 0.08000607788562775, 0.4833790957927704, 
316, 2981218768, -123.258056640625, 1.612286925315857, 19.55295753479004, -0.2596990764141083, -7.984472751617432, -5.478888034820557, 9.785046577453613, 0.9446273446083069, 0.40117013454437256, 
317, 2981227101, -123.1947021484375, 1.6004728078842163, 19.534717559814453, -0.17036786675453186, -7.848587989807129, -5.59298038482666, 9.54816722869873, 1.5855467319488525, -0.6268700361251831, 
318, 2981235434, -123.13432312011719, 1.580467939376831, 19.518457412719727, -0.24832536280155182, -7.934306621551514, -5.483885765075684, 8.945542335510254, 1.9081839323043823, -1.5450637340545654, 
319, 2981243767, -123.0849380493164, 1.555737853050232, 19.50310707092285, -0.3174922466278076, -7.815107822418213, -5.391225337982178, 7.864081859588623, 2.1414778232574463, -2.118079423904419, 
320, 2981252100, -123.03968811035156, 1.5279765129089355, 19.487045288085938, -0.2789994180202484, -7.809237003326416, -5.32966423034668, 7.127623081207275, 2.394188642501831, -2.3430752754211426, 
321, 2981260433, -123.00139617919922, 1.4914309978485107, 19.472148895263672, -0.26099854707717896, -7.850881099700928, -5.406719207763672, 6.528890132904053, 2.865874767303467, -3.343029499053955, 
322, 2981268766, -122.97415924072266, 1.4511502981185913, 19.45609474182129, -0.2025018334388733, -7.6063361167907715, -5.365534782409668, 4.963296413421631, 3.208925724029541, -3.609161138534546, 
323, 2981277099, -122.973388671875, 1.4064977169036865, 19.440515518188477, -0.1430007517337799, -7.719567775726318, -5.388233661651611, 2.0248053073883057, 3.460278034210205, -4.118987083435059, 
324, 2981285432, -122.9836196899414, 1.3567166328430176, 19.42725372314453, -0.1313125640153885, -7.939558982849121, -5.454138278961182, 0.45598462224006653, 3.548518657684326, -4.74817419052124, 
325, 2981293765, -123.0000991821289, 1.2995651960372925, 19.41136360168457, -0.10426801443099976, -7.891013145446777, -5.473801612854004, -0.03897206112742424, 4.311645030975342, -5.351723670959473, 
326, 2981302098, -123.02688598632812, 1.2391209602355957, 19.39092254638672, -0.008068088442087173, -7.976235866546631, -5.5568528175354, -1.5170671939849854, 4.9691619873046875, -5.350391387939453, 
327, 2981310431, -123.05535125732422, 1.1700209379196167, 19.369962692260742, 0.04652518406510353, -8.069327354431152, -5.590683460235596, -1.4710384607315063, 5.606315612792969, -6.21571683883667, 
328, 2981318764, -123.07733154296875, 1.0946940183639526, 19.341358184814453, 0.034660499542951584, -8.247572898864746, -5.568259239196777, -0.9247892498970032, 6.77038049697876, -6.306674003601074, 
329, 2981327097, -123.08272552490234, 1.0104063749313354, 19.31268882751465, 0.028775084763765335, -8.459061622619629, -5.546514511108398, 1.3113211393356323, 7.377668857574463, -7.231220245361328, 
330, 2981335430, -123.06839752197266, 0.9207124710083008, 19.2843074798584, -0.012722216546535492, -8.43321418762207, -5.501748085021973, 3.4213063716888428, 7.689432144165039, -7.7631120681762695, 
331, 2981343763, -123.04676055908203, 0.8280100226402283, 19.25777244567871, 0.03138882666826248, -8.435942649841309, -5.505289554595947, 4.538355827331543, 7.7108073234558105, -8.217110633850098, 
332, 2981352096, -123.0124740600586, 0.7310976982116699, 19.231962203979492, 0.06345085799694061, -8.52682113647461, -5.615494728088379, 5.801753520965576, 7.896844387054443, -8.66702651977539, 
333, 2981360429, -122.97038269042969, 0.6329972743988037, 19.204364776611328, 0.07436565309762955, -8.49019718170166, -5.675358295440674, 6.981340408325195, 8.16067123413086, -8.699504852294922, 
334, 2981368762, -122.91857147216797, 0.5319172143936157, 19.173540115356445, 0.09699194133281708, -8.265480995178223, -5.631004333496094, 7.898508548736572, 8.662043571472168, -8.770942687988281, 
335, 2981377095, -122.87670135498047, 0.4338022470474243, 19.142066955566406, 0.08160126954317093, -8.20352554321289, -5.702192306518555, 6.951423168182373, 8.5399169921875, -8.458296775817871, 
336, 2981385428, -122.84733581542969, 0.33551275730133057, 19.11249542236328, 0.04310937225818634, -8.230441093444824, -5.729866981506348, 5.193133354187012, 8.342352867126465, -8.58611011505127, 
337, 2981393761, -122.83064270019531, 0.23854337632656097, 19.079938888549805, -0.0769224464893341, -8.339195251464844, -5.613836765289307, 3.9179279804229736, 8.563813209533691, -8.282197952270508, 
338, 2981402094, -122.81519317626953, 0.14094281196594238, 19.047117233276367, -0.15569448471069336, -8.497314453125, -5.488548278808594, 3.509880304336548, 8.619921684265137, -8.311051368713379, 
339, 2981410427, -122.79570770263672, 0.04511426016688347, 19.019765853881836, -0.13450977206230164, -8.686860084533691, -5.445944786071777, 4.239322662353516, 7.963555812835693, -8.506205558776855, 
340, 2981418760, -122.75455474853516, -0.05058182030916214, 18.99946403503418, -0.0965980514883995, -8.693486213684082, -5.437285900115967, 6.585343360900879, 7.226595401763916, -8.941123008728027, 
341, 2981427093, -122.70233154296875, -0.14298845827579498, 18.98865509033203, -0.06815735995769501, -8.588217735290527, -5.515608787536621, 8.156124114990234, 6.0612897872924805, -9.247688293457031, 
342, 2981435426, -122.63639068603516, -0.23496682941913605, 18.984163284301758, 0.018444398418068886, -8.491586685180664, -5.587700366973877, 9.555608749389648, 5.373776912689209, -9.60313606262207, 
343, 2981443759, -122.56963348388672, -0.32500433921813965, 18.982519149780273, 0.021861709654331207, -8.475656509399414, -5.644354343414307, 9.89986515045166, 4.961362361907959, -9.619425773620605, 
344, 2981452092, -122.50120544433594, -0.41179221868515015, 18.978544235229492, -0.04161177575588226, -8.390599250793457, -5.61150598526001, 9.854591369628906, 4.966139793395996, -9.1271333694458, 
345, 2981460425, -122.44649505615234, -0.4975838363170624, 18.97631072998047, 0.005346808582544327, -8.328409194946289, -5.564990520477295, 8.4522123336792, 4.728644371032715, -9.1620454788208, 
346, 2981468758, -122.40266418457031, -0.5810149312019348, 18.97397804260254, 0.02740205079317093, -8.445595741271973, -5.5834197998046875, 6.903651714324951, 4.56699275970459, -8.903905868530273, 
347, 2981477091, -122.37472534179688, -0.6610514521598816, 18.97634506225586, 0.02571346051990986, -8.45932674407959, -5.5503129959106445, 5.246897220611572, 3.8801212310791016, -8.885821342468262, 
348, 2981485424, -122.35957336425781, -0.7371207475662231, 18.98293685913086, 0.028142163529992104, -8.356167793273926, -5.513514995574951, 3.4707541465759277, 3.1810832023620605, -8.736080169677734, 
349, 2981493757, -122.36116027832031, -0.8094837069511414, 18.994232177734375, 0.07288767397403717, -8.30709457397461, -5.522923469543457, 1.7213537693023682, 2.4817123413085938, -8.681061744689941, 
350, 2981502090, -122.37114715576172, -0.8807482719421387, 19.008392333984375, 0.07523982971906662, -8.277304649353027, -5.584331512451172, 0.4704951345920563, 2.1060667037963867, -8.735427856445312, 
351, 2981510423, -122.39401245117188, -0.9506915807723999, 19.023054122924805, 0.12032770365476608, -8.267257690429688, -5.611186504364014, -0.8230750560760498, 1.9878952503204346, -8.652552604675293, 
352, 2981518756, -122.41939544677734, -1.0218240022659302, 19.037899017333984, 0.17792610824108124, -8.387838363647461, -5.644556045532227, -1.3700543642044067, 2.0322976112365723, -8.76478099822998, 
353, 2981527089, -122.44274139404297, -1.0902447700500488, 19.0531005859375, 0.18130557239055634, -8.421573638916016, -5.583125591278076, -0.8735734820365906, 1.84259831905365, -8.530872344970703, 
354, 2981535422, -122.46160125732422, -1.153844952583313, 19.065406799316406, 0.1714555323123932, -8.432340621948242, -5.667163372039795, -0.5895629525184631, 1.8122202157974243, -7.8348069190979, 
355, 2981543755, -122.4759750366211, -1.2123243808746338, 19.073678970336914, 0.20702609419822693, -8.459004402160645, -5.709384918212891, 0.18852075934410095, 1.9092081785202026, -7.076457500457764, 
356, 2981552088, -122.48397064208984, -1.2656854391098022, 19.0756778717041, 0.17257340252399445, -8.447832107543945, -5.719303131103516, 0.6925576329231262, 2.2001090049743652, -6.1323418617248535, 
357, 2981560421, -122.49378967285156, -1.3184491395950317, 19.073734283447266, 0.11483269184827805, -8.471847534179688, -5.664926052093506, 0.7125367522239685, 2.5795581340789795, -5.8371381759643555, 
358, 2981568754, -122.50642395019531, -1.3708610534667969, 19.068763732910156, 0.13477233052253723, -8.524600982666016, -5.719595432281494, 0.11290755122900009, 2.8439743518829346, -5.587194919586182, 
359, 2981577087, -122.52788543701172, -1.4228209257125854, 19.06100082397461, 0.1569671928882599, -8.472496032714844, -5.692394733428955, -0.7007158398628235, 3.117227077484131, -5.379745006561279, 
360, 2981585420, -122.55966186523438, -1.473402738571167, 19.051132202148438, 0.1855417639017105, -8.482967376708984, -5.70405912399292, -2.1997756958007812, 3.2250492572784424, -5.083682537078857, 
361, 2981593753, -122.59915161132812, -1.52034330368042, 19.038251876831055, 0.1988411396741867, -8.50698184967041, -5.711972713470459, -2.877246856689453, 3.3183367252349854, -4.536229610443115, 
362, 2981602086, -122.63595581054688, -1.5651413202285767, 19.024211883544922, 0.23043236136436462, -8.65376091003418, -5.719381332397461, -2.8178350925445557, 3.279083251953125, -4.222109794616699, 
363, 2981610419, -122.66699981689453, -1.6077075004577637, 19.01287078857422, 0.2168480008840561, -8.604272842407227, -5.698952674865723, -1.8640373945236206, 2.881627321243286, -4.192013263702393, 
364, 2981618752, -122.69457244873047, -1.6483596563339233, 19.00440788269043, 0.20775415003299713, -8.540227890014648, -5.716737270355225, -1.6947017908096313, 2.450385570526123, -4.1605072021484375, 
365, 2981627085, -122.7237777709961, -1.6847193241119385, 18.993864059448242, 0.1962844282388687, -8.51438045501709, -5.73853874206543, -1.6408607959747314, 2.404484987258911, -3.6120550632476807, 
366, 2981635418, -122.75247192382812, -1.7209539413452148, 18.98513412475586, 0.18414272367954254, -8.445881843566895, -5.777639865875244, -1.8315588235855103, 2.1942434310913086, -3.6935596466064453, 
367, 2981643751, -122.79511260986328, -1.7542917728424072, 18.9760684967041, 0.13618884980678558, -8.402623176574707, -5.726076126098633, -3.2475132942199707, 2.064251184463501, -3.400174379348755, 
368, 2981652084, -122.84708404541016, -1.7863467931747437, 18.96748161315918, 0.09020812064409256, -8.46157455444336, -5.727197647094727, -4.625815391540527, 1.9117438793182373, -3.2773797512054443, 
369, 2981660417, -122.90754699707031, -1.8157541751861572, 18.957672119140625, 0.1266867071390152, -8.478646278381348, -5.702077865600586, -5.389017105102539, 1.8893569707870483, -2.9492099285125732, 
370, 2981668750, -122.97311401367188, -1.8399913311004639, 18.9504451751709, 0.07679495215415955, -8.611867904663086, -5.662610054016113, -6.252140522003174, 1.2712090015411377, -2.5719637870788574, 
371, 2981677083, -123.03722381591797, -1.8571544885635376, 18.945520401000977, 0.10080253332853317, -8.61999225616455, -5.676328659057617, -5.8097310066223145, 0.6043166518211365, -2.03175950050354, 
372, 2981685416, -123.08953094482422, -1.8666375875473022, 18.943607330322266, 0.12503550946712494, -8.625855445861816, -5.631145000457764, -4.638391971588135, -0.22475212812423706, -1.4307727813720703, 
373, 2981693749, -123.13209533691406, -1.872104525566101, 18.949525833129883, 0.05437864735722542, -8.665691375732422, -5.633364677429199, -3.1857316493988037, -1.2478101253509521, -1.5656572580337524, 
374, 2981702082, -123.16510009765625, -1.8735744953155518, 18.95779800415039, 0.03741886094212532, -8.592480659484863, -5.664401531219482, -2.282932996749878, -1.7725178003311157, -1.2933781147003174, 
375, 2981710415, -123.20079803466797, -1.8720329999923706, 18.9681396484375, 0.043125417083501816, -8.453415870666504, -5.691962242126465, -2.3425753116607666, -2.1506991386413574, -1.1542798280715942, 
376, 2981718748, -123.2447280883789, -1.8655070066452026, 18.98005485534668, 0.05533786863088608, -8.400023460388184, -5.708240509033203, -3.579922676086426, -2.662241220474243, -0.7308254241943359, 
377, 2981727081, -123.3000259399414, -1.8549487590789795, 18.99264144897461, 0.06732183694839478, -8.378777503967285, -5.730096817016602, -4.689608573913574, -2.9669225215911865, -0.4012470543384552, 
378, 2981735414, -123.35465240478516, -1.8400561809539795, 19.003673553466797, 0.04434932768344879, -8.450161933898926, -5.726356029510498, -4.8677167892456055, -3.1263582706451416, 0.1625223159790039, 
379, 2981743747, -123.41344451904297, -1.8224883079528809, 19.0168399810791, 0.05816727876663208, -8.454076766967773, -5.7001543045043945, -5.103445053100586, -3.484983444213867, 0.2564753293991089, 
380, 2981752080, -123.47412872314453, -1.7975741624832153, 19.031314849853516, 0.09473633021116257, -8.444669723510742, -5.730657577514648, -5.581765174865723, -4.1346116065979, 0.9341768026351929, 
381, 2981760413, -123.53862762451172, -1.7695478200912476, 19.048200607299805, 0.0761927142739296, -8.379703521728516, -5.7415595054626465, -5.782989978790283, -4.5525593757629395, 1.0476222038269043, 
382, 2981768746, -123.61402130126953, -1.739701509475708, 19.068157196044922, 0.12712517380714417, -8.356375694274902, -5.741652488708496, -7.328271389007568, -5.012463092803955, 1.0583033561706543, 
383, 2981777079, -123.70826721191406, -1.7100778818130493, 19.09407615661621, 0.13617777824401855, -8.345044136047363, -5.774391174316406, -9.31688404083252, -5.562708377838135, 0.5963507890701294, 
384, 2981785412, -123.82362365722656, -1.6783705949783325, 19.124126434326172, 0.13957929611206055, -8.27036190032959, -5.824711322784424, -12.093750953674316, -6.149864196777344, 0.5567511320114136, 
385, 2981793745, -123.96003723144531, -1.6440668106079102, 19.151987075805664, 0.17545479536056519, -8.279800415039062, -5.8415398597717285, -14.37118911743164, -6.0719194412231445, 0.9113034009933472, 
386, 2981802078, -124.11016845703125, -1.6049431562423706, 19.17878532409668, 0.21417972445487976, -8.283750534057617, -5.849492073059082, -16.282089233398438, -6.328958988189697, 1.4897754192352295, 
387, 2981810411, -124.27336883544922, -1.5655611753463745, 19.203405380249023, 0.21711358428001404, -8.090202331542969, -5.835663318634033, -17.601787567138672, -6.099967956542969, 1.6078572273254395, 
388, 2981818744, -124.44913482666016, -1.523821234703064, 19.221712112426758, 0.15650048851966858, -8.127930641174316, -5.840269088745117, -19.391990661621094, -5.679561138153076, 2.291116952896118, 
389, 2981827077, -124.62728118896484, -1.486518144607544, 19.236536026000977, 0.18634255230426788, -8.194000244140625, -5.880270481109619, -19.429542541503906, -5.007059574127197, 2.0347697734832764, 
390, 2981835410, -124.80152893066406, -1.4541515111923218, 19.246824264526367, 0.16709396243095398, -8.133015632629395, -5.87639856338501, -19.234298706054688, -4.263695240020752, 1.8875517845153809, 
391, 2981843743, -124.97322845458984, -1.4206994771957397, 19.250028610229492, 0.15487557649612427, -8.141265869140625, -5.8860321044921875, -18.694658279418945, -3.614912271499634, 2.427577018737793, 
392, 2981852076, -125.12957000732422, -1.3912785053253174, 19.253620147705078, 0.1658879965543747, -8.137190818786621, -5.889583110809326, -17.10662269592285, -3.4187326431274414, 2.039597749710083, 
393, 2981860409, -125.2671890258789, -1.365342617034912, 19.25176239013672, 0.16192655265331268, -8.24750804901123, -5.8670501708984375, -14.616293907165527, -2.6130495071411133, 2.026188850402832, 
394, 2981868742, -125.36880493164062, -1.3465520143508911, 19.253732681274414, 0.11529292911291122, -8.41302490234375, -5.87695837020874, -10.544549942016602, -2.5345163345336914, 1.1006438732147217, 
395, 2981877075, -125.44038391113281, -1.3345481157302856, 19.2584285736084, 0.10039468109607697, -8.266386032104492, -5.900467395782471, -6.675491809844971, -2.2954835891723633, 0.2035306990146637, 
396, 2981885408, -125.5, -1.3247900009155273, 19.263296127319336, 0.11546345800161362, -8.096534729003906, -5.889303684234619, -5.496405124664307, -2.193629026412964, 0.011744126677513123, 
397, 2981893741, -125.56050109863281, -1.3155136108398438, 19.267175674438477, 0.10468462854623795, -8.064562797546387, -5.950275421142578, -5.349686622619629, -2.024446725845337, -0.010681136511266232, 
398, 2981902074, -125.61664581298828, -1.3088942766189575, 19.26699447631836, 0.10645093768835068, -8.081927299499512, -5.898884296417236, -5.091763973236084, -1.4824621677398682, 0.05617201700806618, 
399, 2981910407, -125.67496490478516, -1.3024871349334717, 19.263906478881836, 0.11933583766222, -8.08962345123291, -5.930436134338379, -5.107478618621826, -1.145827054977417, 0.19378449022769928, 
400, 2981918740, -125.72711944580078, -1.2966551780700684, 19.256370544433594, 0.11239144206047058, -8.113649368286133, -5.979393482208252, -4.636176586151123, -0.7127929925918579, 0.4936503767967224, 
401, 2981927073, -125.7796401977539, -1.2907112836837769, 19.248332977294922, 0.14022545516490936, -8.05996322631836, -5.970778942108154, -4.426357746124268, -0.6332222819328308, 0.49327898025512695, 
402, 2981935406, -125.83368682861328, -1.286973476409912, 19.239492416381836, 0.16642917692661285, -8.023581504821777, -5.972512245178223, -4.864207744598389, -0.4400653839111328, 0.38306093215942383, 
403, 2981943739, -125.89799499511719, -1.2835772037506104, 19.22854232788086, 0.1915765106678009, -8.090659141540527, -5.996439456939697, -5.8505988121032715, -0.17335714399814606, 0.4505159854888916, 
404, 2981952072, -125.95963287353516, -1.2802278995513916, 19.220592498779297, 0.19265253841876984, -8.220074653625488, -5.9847941398620605, -5.775561332702637, -0.5017188191413879, 0.28206396102905273, 
405, 2981960405, -126.00898742675781, -1.2813066244125366, 19.220285415649414, 0.20318734645843506, -8.30504035949707, -5.95662784576416, -4.023675918579102, -0.8923870921134949, -0.7315808534622192, 
406, 2981968738, -126.04479217529297, -1.2855050563812256, 19.228673934936523, 0.20928794145584106, -8.233877182006836, -5.973917007446289, -2.6294548511505127, -1.555245041847229, -1.5998649597167969, 
407, 2981977071, -126.07701873779297, -1.2873938083648682, 19.237051010131836, 0.2221333384513855, -8.185999870300293, -5.995208263397217, -1.949102520942688, -1.6787186861038208, -1.425368309020996, 
408, 2981985404, -126.09556579589844, -1.2904924154281616, 19.241619110107422, 0.21074971556663513, -8.195943832397461, -6.029622554779053, -0.5687512755393982, -1.2616676092147827, -1.2246806621551514, 
409, 2981993737, -126.11051177978516, -1.2952845096588135, 19.243907928466797, 0.2695048153400421, -8.079965591430664, -6.002995014190674, 0.10519767552614212, -0.8829098343849182, -1.2762421369552612, 
410, 2982002070, -126.12385559082031, -1.3006093502044678, 19.242900848388672, 0.22337613999843597, -8.131229400634766, -6.046062469482422, 0.04090593010187149, -0.5641407370567322, -1.0483266115188599, 
411, 2982010403, -126.12903594970703, -1.3077877759933472, 19.240652084350586, 0.20114164054393768, -8.157892227172852, -5.963510036468506, 1.2646771669387817, -0.2729836702346802, -1.1832367181777954, 
412, 2982018736, -126.12504577636719, -1.3151116371154785, 19.242109298706055, 0.18957506120204926, -8.131209373474121, -5.902274131774902, 2.1293115615844727, -0.6613467931747437, -1.415737271308899, 
413, 2982027069, -126.11556243896484, -1.3225116729736328, 19.24837303161621, 0.17824867367744446, -8.137353897094727, -5.961333751678467, 3.0465950965881348, -1.082483172416687, -1.8081085681915283, 
414, 2982035402, -126.10346221923828, -1.3292744159698486, 19.257362365722656, 0.15003034472465515, -8.096817970275879, -5.9657487869262695, 3.120069742202759, -1.4314385652542114, -1.8936216831207275, 
415, 2982043735, -126.09059143066406, -1.3347034454345703, 19.267927169799805, 0.16988548636436462, -8.03451919555664, -5.970358848571777, 3.464376449584961, -1.6391957998275757, -1.920952320098877, 
416, 2982052068, -126.07966613769531, -1.3396698236465454, 19.277952194213867, 0.21888765692710876, -7.9845476150512695, -5.988250732421875, 2.984083890914917, -1.6582013368606567, -1.7918566465377808, 
417, 2982060401, -126.0762939453125, -1.3382351398468018, 19.28445816040039, 0.23234909772872925, -8.085498809814453, -5.999898910522461, 2.3145792484283447, -1.7306385040283203, -0.9680259823799133, 
418, 2982068734, -126.06841278076172, -1.334760069847107, 19.288257598876953, 0.2646888494491577, -8.033897399902344, -6.068639755249023, 2.6007792949676514, -1.6523997783660889, -0.5339030623435974, 
419, 2982077067, -126.07003784179688, -1.3302946090698242, 19.291627883911133, 0.28873419761657715, -7.98518180847168, -6.063045978546143, 1.701015591621399, -1.6422182321548462, -0.4533591568470001, 
420, 2982085400, -126.07486724853516, -1.326061725616455, 19.295011520385742, 0.2671006917953491, -8.099519729614258, -6.027257442474365, 1.0739279985427856, -1.6650917530059814, -0.43140774965286255, 
421, 2982093733, -126.08041381835938, -1.3248623609542847, 19.301721572875977, 0.24583855271339417, -8.18123722076416, -6.0003252029418945, 1.2421878576278687, -1.7361712455749512, -1.004372477531433, 
422, 2982102066, -126.08048248291016, -1.324808120727539, 19.313976287841797, 0.20288024842739105, -8.128804206848145, -5.96841287612915, 1.668511152267456, -2.229706287384033, -1.463200330734253, 
423, 2982110399, -126.07880401611328, -1.3310436010360718, 19.329486846923828, 0.17723840475082397, -8.060757637023926, -5.953683376312256, 2.1345877647399902, -2.0630600452423096, -2.3482489585876465, 
424, 2982118732, -126.07563781738281, -1.3481396436691284, 19.350343704223633, 0.22612951695919037, -7.787827491760254, -5.982696056365967, 2.0840511322021484, -1.8518965244293213, -3.7343637943267822, 
425, 2982127065, -126.09314727783203, -1.3687424659729004, 19.370464324951172, 0.2306705117225647, -7.860550403594971, -5.969974517822266, -0.15930773317813873, -1.4941935539245605, -4.065376281738281, 
426, 2982135398, -126.09919738769531, -1.4099069833755493, 19.397680282592773, 0.29677310585975647, -7.6606059074401855, -6.025741100311279, 0.9959967732429504, -0.7673768997192383, -6.518797397613525, 
427, 2982143731, -126.12008666992188, -1.4582568407058716, 19.42374610900879, 0.25991007685661316, -7.683144569396973, -5.962886333465576, -0.5409469604492188, -0.10499273985624313, -7.17667293548584, 
428, 2982152064, -126.14903259277344, -1.5116353034973145, 19.452030181884766, 0.25558674335479736, -7.801915168762207, -6.096846580505371, -1.740577220916748, -0.000550706114154309, -7.7763166427612305, 
429, 2982160397, -126.18788146972656, -1.5582090616226196, 19.47382164001465, 0.3791593909263611, -7.703274726867676, -6.123490333557129, -2.701136350631714, 0.18980149924755096, -6.699774742126465, 
430, 2982168730, -126.24459075927734, -1.595484972000122, 19.489208221435547, 0.3118479549884796, -7.804849624633789, -6.119629383087158, -5.110001564025879, 0.11621177196502686, -5.302620887756348, 
431, 2982177063, -126.29792022705078, -1.6254342794418335, 19.502037048339844, 0.40636056661605835, -7.9749298095703125, -6.1427083015441895, -4.4649457931518555, -0.11441881209611893, -4.453035354614258, 
432, 2982185396, -126.34672546386719, -1.650147795677185, 19.515419006347656, 0.38132214546203613, -8.04570198059082, -6.189455986022949, -4.165374279022217, -0.5736436247825623, -3.9428629875183105, 
433, 2982193729, -126.39801788330078, -1.669081449508667, 19.52585220336914, 0.40159088373184204, -7.919534206390381, -6.131277561187744, -4.227129936218262, -0.6600660085678101, -3.215137243270874, 
434, 2982202062, -126.45480346679688, -1.685457468032837, 19.531660079956055, 0.41754353046417236, -7.94099235534668, -6.202102184295654, -5.150548934936523, -0.43204814195632935, -2.5982439517974854, 
435, 2982210395, -126.51374053955078, -1.7027674913406372, 19.531892776489258, 0.35260769724845886, -8.106502532958984, -6.2264814376831055, -5.177341461181641, 0.21226517856121063, -2.327911376953125, 
436, 2982218728, -126.57059478759766, -1.7164242267608643, 19.527666091918945, 0.26724445819854736, -8.092517852783203, -6.21388578414917, -5.193324565887451, 0.34615081548690796, -1.6173982620239258, 
437, 2982227061, -126.62725830078125, -1.7293095588684082, 19.522436141967773, 0.2656406760215759, -8.141587257385254, -6.150365352630615, -4.924067497253418, 0.42383873462677, -1.5088192224502563, 
438, 2982235394, -126.67276000976562, -1.7414265871047974, 19.518966674804688, 0.19789128005504608, -8.325477600097656, -6.053787708282471, -3.8286237716674805, 0.16372618079185486, -1.520909070968628, 
439, 2982243727, -126.70487213134766, -1.7469606399536133, 19.51669692993164, 0.19542814791202545, -8.231833457946777, -6.087841987609863, -1.9693375825881958, -0.3859168589115143, -1.0098284482955933, 
440, 2982252060, -126.7301025390625, -1.7481653690338135, 19.512189865112305, 0.1643076241016388, -8.341629981994629, -6.147660255432129, -1.3996769189834595, -0.5180094838142395, -0.3950611650943756, 
441, 2982260393, -126.75040435791016, -1.7462553977966309, 19.506685256958008, 0.13549630343914032, -8.289694786071777, -6.150071620941162, -0.5647426247596741, -0.6108226776123047, -0.06490647047758102, 
442, 2982268726, -126.76686096191406, -1.7388889789581299, 19.499319076538086, 0.17538771033287048, -8.104736328125, -6.147825717926025, -0.3564092516899109, -0.859293520450592, 0.6345926523208618, 
443, 2982277059, -126.7929458618164, -1.7280782461166382, 19.48930549621582, 0.15149183571338654, -8.2654447555542, -6.188253402709961, -1.2779836654663086, -0.8155187964439392, 1.1144497394561768, 
444, 2982285392, -126.81011199951172, -1.7183367013931274, 19.479843139648438, 0.1279214471578598, -8.264208793640137, -6.152796745300293, -0.4486973285675049, -0.8291966915130615, 1.0131454467773438, 
445, 2982293725, -126.82937622070312, -1.7038625478744507, 19.4720458984375, 0.10622289031744003, -8.253260612487793, -6.065960884094238, -0.45306459069252014, -1.2938263416290283, 1.307773232460022, 
446, 2982302058, -126.8465347290039, -1.6866135597229004, 19.46774673461914, 0.13999776542186737, -8.15625, -6.063766002655029, -0.4297044277191162, -1.8659971952438354, 1.362152338027954, 
447, 2982310391, -126.8671875, -1.6654918193817139, 19.46061897277832, 0.09780603647232056, -8.312788963317871, -6.168550968170166, -0.6188656091690063, -1.8338769674301147, 1.896823763847351, 
448, 2982318724, -126.87911224365234, -1.6443208456039429, 19.452678680419922, 0.0742800161242485, -8.260425567626953, -6.09088134765625, 0.1868942826986313, -1.8009113073349, 2.001713991165161, 
449, 2982327057, -126.8958969116211, -1.6208664178848267, 19.444656372070312, 0.06274782121181488, -8.274894714355469, -6.047861576080322, -0.1598072201013565, -1.9176098108291626, 2.180962562561035, 
450, 2982335390, -126.90278625488281, -1.5972046852111816, 19.4360408782959, 0.07504864782094955, -8.373261451721191, -6.100276947021484, 0.7884957194328308, -1.916200876235962, 2.289541006088257, 
451, 2982343723, -126.89778900146484, -1.5714658498764038, 19.427379608154297, 0.06756360083818436, -8.315531730651855, -6.106399059295654, 2.452857255935669, -2.020322561264038, 2.4445838928222656, 
452, 2982352056, -126.8873519897461, -1.5465720891952515, 19.418413162231445, 0.07049433887004852, -8.252893447875977, -6.078383445739746, 2.8687944412231445, -1.9715917110443115, 2.431098222732544, 
453, 2982360389, -126.87307739257812, -1.5213382244110107, 19.41116714477539, 0.08065921813249588, -8.308452606201172, -6.06047248840332, 3.565476179122925, -2.1173880100250244, 2.294881820678711, 
454, 2982368722, -126.85028839111328, -1.4961680173873901, 19.405323028564453, 0.079212486743927, -8.175714492797852, -6.095578670501709, 4.3596062660217285, -2.288811206817627, 2.235546350479126, 
455, 2982377055, -126.82554626464844, -1.467743158340454, 19.400867462158203, 0.07088525593280792, -8.086921691894531, -6.044074535369873, 4.829704284667969, -2.614649534225464, 2.397453546524048, 
456, 2982385388, -126.7995376586914, -1.4352954626083374, 19.39740562438965, 0.02699398249387741, -8.038199424743652, -6.045086860656738, 4.756679058074951, -3.0379254817962646, 2.763763427734375, 
457, 2982393721, -126.77423858642578, -1.401111364364624, 19.395061492919922, 0.02270016074180603, -8.034123420715332, -6.003504276275635, 4.899618625640869, -3.2253828048706055, 2.8014800548553467, 
458, 2982402054, -126.74456787109375, -1.370438575744629, 19.391109466552734, 0.003077650675550103, -8.018385887145996, -6.011351585388184, 5.195923805236816, -2.860123634338379, 2.629377841949463, 
459, 2982410387, -126.71247100830078, -1.3440275192260742, 19.38786506652832, 0.01860877312719822, -7.9890594482421875, -6.00609016418457, 5.713088512420654, -2.576305389404297, 2.1196932792663574, 
460, 2982418720, -126.67668151855469, -1.3232961893081665, 19.383447647094727, 0.03263350948691368, -8.02679443359375, -5.981882095336914, 5.92746639251709, -2.0998291969299316, 1.709340214729309, 
461, 2982427053, -126.63814544677734, -1.3060489892959595, 19.379528045654297, 0.03850123658776283, -8.069761276245117, -6.020503044128418, 6.482348442077637, -1.8518965244293213, 1.2839137315750122, 
462, 2982435386, -126.588623046875, -1.2907352447509766, 19.376625061035156, 0.07054056227207184, -8.0652494430542, -5.984001636505127, 7.5804829597473145, -1.8542019128799438, 1.0795377492904663, 
463, 2982443719, -126.53482818603516, -1.2782689332962036, 19.37550926208496, 0.1048307791352272, -7.993573188781738, -5.998176097869873, 8.319170951843262, -1.7738242149353027, 0.6254227757453918, 
464, 2982452052, -126.48237609863281, -1.2706239223480225, 19.373924255371094, 0.14204241335391998, -7.874433994293213, -6.036773681640625, 7.9372382164001465, -1.429876685142517, 0.24797146022319794, 
465, 2982460385, -126.44396209716797, -1.2678074836730957, 19.369443893432617, 0.17824022471904755, -7.847702503204346, -6.050937652587891, 6.460537910461426, -0.7617161273956299, -0.0674935057759285, 
466, 2982468718, -126.41124725341797, -1.2706364393234253, 19.364133834838867, 0.1575501263141632, -7.977911472320557, -6.034650802612305, 5.556662559509277, -0.3242250084877014, -0.49852991104125977, 
467, 2982477051, -126.37774658203125, -1.2737236022949219, 19.359628677368164, 0.12707701325416565, -7.969480514526367, -5.991149425506592, 5.875341415405273, -0.33427855372428894, -0.634528636932373, 
468, 2982485384, -126.33637237548828, -1.276294469833374, 19.3569278717041, 0.14507688581943512, -7.960933685302734, -5.991051197052002, 6.602273941040039, -0.5951595902442932, -0.6600660085678101, 
469, 2982493717, -126.29595184326172, -1.2780101299285889, 19.35289764404297, 0.15919317305088043, -7.92936897277832, -6.002823829650879, 6.706305980682373, -0.4800107479095459, -0.5379501581192017, 
470, 2982502050, -126.25442504882812, -1.2822086811065674, 19.347692489624023, 0.18138280510902405, -7.971122741699219, -6.040683746337891, 6.614786624908447, -0.23542043566703796, -0.6403046250343323, 
471, 2982510383, -126.21281433105469, -1.2861192226409912, 19.342370986938477, 0.22204121947288513, -7.972744464874268, -6.005699157714844, 6.845147609710693, -0.19859997928142548, -0.6598354578018188, 
472, 2982518716, -126.16829681396484, -1.2905837297439575, 19.3377628326416, 0.24802222847938538, -7.957004070281982, -6.038476943969727, 6.975908279418945, -0.2766977846622467, -0.710013747215271, 
473, 2982527049, -126.12421417236328, -1.2937254905700684, 19.33331871032715, 0.25081467628479004, -7.934152603149414, -6.049067497253418, 7.144091606140137, -0.3372497856616974, -0.6484627723693848, 
474, 2982535382, -126.08441925048828, -1.2969154119491577, 19.32859230041504, 0.28163260221481323, -7.921449661254883, -6.044191837310791, 6.405479431152344, -0.35492366552352905, -0.5781517028808594, 
475, 2982543715, -126.0489273071289, -1.2976006269454956, 19.320985794067383, 0.268330454826355, -7.994294166564941, -6.08922004699707, 6.106255054473877, -0.20461934804916382, -0.1888921856880188, 
476, 2982552048, -126.0086898803711, -1.300024151802063, 19.31606674194336, 0.31902867555618286, -7.960265159606934, -6.057762622833252, 6.460128307342529, -0.3908732533454895, -0.4912042021751404, 
477, 2982560381, -125.97831726074219, -1.3030431270599365, 19.311269760131836, 0.3248133063316345, -7.886875629425049, -6.04010009765625, 5.498774528503418, -0.3125705420970917, -0.6116423010826111, 
478, 2982568714, -125.95643615722656, -1.3094961643218994, 19.304359436035156, 0.3270677626132965, -7.966057777404785, -6.126905918121338, 4.250682353973389, 0.08721647411584854, -0.7434915900230408, 
479, 2982577047, -125.94131469726562, -1.3176606893539429, 19.2949161529541, 0.38651108741760254, -7.95693826675415, -6.090926647186279, 3.656867027282715, 0.4979918599128723, -0.7846536040306091, 
480, 2982585380, -125.93012237548828, -1.3263007402420044, 19.284929275512695, 0.357727587223053, -7.946554660797119, -6.014823913574219, 2.958610773086548, 0.540729284286499, -0.7381253838539124, 
481, 2982593713, -125.92617797851562, -1.3357043266296387, 19.274850845336914, 0.3014993369579315, -8.0563325881958, -6.00387716293335, 2.315514087677002, 0.6462855935096741, -0.8595112562179565, 
482, 2982602046, -125.91735076904297, -1.3471049070358276, 19.264692306518555, 0.2855556905269623, -8.07833480834961, -5.988560199737549, 2.675342559814453, 0.7526102066040039, -0.9950873851776123, 
483, 2982610379, -125.90938568115234, -1.358055830001831, 19.252708435058594, 0.27348122000694275, -8.066435813903809, -6.000496864318848, 2.7934885025024414, 0.9400168657302856, -0.8745852112770081, 
484, 2982618712, -125.89749145507812, -1.3684160709381104, 19.240036010742188, 0.27781757712364197, -7.98448371887207, -6.000339508056641, 3.034928321838379, 0.9212672114372253, -0.7198495864868164, 
485, 2982627045, -125.89041137695312, -1.3754568099975586, 19.226932525634766, 0.27266648411750793, -7.919639587402344, -5.979323387145996, 2.6800942420959473, 0.7727558612823486, -0.4157831072807312, 
486, 2982635378, -125.8845443725586, -1.3844398260116577, 19.21276092529297, 0.2610066533088684, -7.9245076179504395, -6.015989303588867, 2.3095717430114746, 0.9716376662254333, -0.4795752763748169, 
487, 2982643711, -125.88835144042969, -1.3949943780899048, 19.197681427001953, 0.2655766010284424, -7.89050817489624, -5.9999895095825195, 1.3691704273223877, 1.2115404605865479, -0.6177641153335571, 
488, 2982652044, -125.90086364746094, -1.408933162689209, 19.182788848876953, 0.29031243920326233, -7.9206647872924805, -5.981314659118652, 0.09953691810369492, 1.3906736373901367, -0.9094461798667908, 
489, 2982660377, -125.92444610595703, -1.4228451251983643, 19.168893814086914, 0.22792617976665497, -7.969529628753662, -5.949611186981201, -0.999019205570221, 1.3328880071640015, -1.0256578922271729, 
490, 2982668710, -125.94523620605469, -1.4337266683578491, 19.1551456451416, 0.174336239695549, -8.11414909362793, -5.945028305053711, -0.8934885263442993, 1.062888264656067, -0.6923912167549133, 
491, 2982677043, -125.96096801757812, -1.444714903831482, 19.143247604370117, 0.15732678771018982, -8.090129852294922, -5.955643177032471, -0.05405883863568306, 0.9321531653404236, -0.880220353603363, 
492, 2982685376, -125.97572326660156, -1.4564555883407593, 19.132596969604492, 0.14651884138584137, -8.096052169799805, -5.951014995574951, -0.15702806413173676, 0.8250600099563599, -0.9925387501716614, 
493, 2982693709, -125.99359130859375, -1.4676225185394287, 19.123779296875, 0.15346424281597137, -8.069415092468262, -5.9630889892578125, -0.3017997145652771, 0.6456836462020874, -1.1131819486618042, 
494, 2982702042, -126.01109313964844, -1.4803048372268677, 19.113243103027344, 0.12791429460048676, -8.093170166015625, -5.9781389236450195, -0.4885914921760559, 0.8792726397514343, -1.090705394744873, 
495, 2982710375, -126.02906799316406, -1.4945931434631348, 19.101268768310547, 0.1265030801296234, -8.114497184753418, -6.03260612487793, -0.3225856423377991, 1.1741693019866943, -1.1913690567016602, 
496, 2982718708, -126.04505157470703, -1.5111044645309448, 19.08633804321289, 0.1538742333650589, -8.012892723083496, -6.032881259918213, -0.32215023040771484, 1.5754162073135376, -1.1525124311447144, 
497, 2982727041, -126.06783294677734, -1.5272631645202637, 19.06946563720703, 0.13618196547031403, -8.056695938110352, -6.038472652435303, -0.9198713302612305, 1.781803011894226, -1.0274510383605957, 
498, 2982735374, -126.08943176269531, -1.5461232662200928, 19.051422119140625, 0.07534324377775192, -8.176020622253418, -6.039794921875, -1.0060632228851318, 2.0445027351379395, -1.1579043865203857, 
499, 2982743707, -126.11163330078125, -1.5649281740188599, 19.037731170654297, 0.09329944103956223, -8.180380821228027, -5.996470928192139, -0.8377904891967773, 1.6621206998825073, -1.5077564716339111, 
500, 2982752040, -126.13076782226562, -1.5851552486419678, 19.028484344482422, 0.10871890187263489, -8.245088577270508, -5.95797872543335, -0.6827731728553772, 1.2893309593200684, -1.9099512100219727, 
501, 2982760373, -126.14353942871094, -1.6054280996322632, 19.024858474731445, 0.11030449718236923, -8.250120162963867, -5.9957275390625, 0.3233541250228882, 0.7917360067367554, -2.3615684509277344, 
502, 2982768706, -126.15036010742188, -1.6242257356643677, 19.025455474853516, 0.06642546504735947, -8.199627876281738, -5.972408771514893, 0.826699435710907, 0.23393480479717255, -2.466356039047241, 
503, 2982777039, -126.15755462646484, -1.641114592552185, 19.027387619018555, 0.09948926419019699, -8.26386833190918, -6.029631614685059, 1.007599949836731, 0.014177479781210423, -2.428255319595337, 
504, 2982785372, -126.15547943115234, -1.656919002532959, 19.029327392578125, 0.11290712654590607, -8.245311737060547, -6.065845012664795, 1.9009989500045776, -0.10640154033899307, -2.271214246749878, 
505, 2982793705, -126.15210723876953, -1.6698575019836426, 19.030790328979492, 0.14414696395397186, -8.185819625854492, -6.053716659545898, 2.2733147144317627, -0.21791312098503113, -2.0112171173095703, 
506, 2982802038, -126.14488220214844, -1.6828577518463135, 19.029935836791992, 0.15644456446170807, -8.234305381774902, -6.094974517822266, 2.508145809173584, -0.03497623652219772, -1.8033829927444458, 
507, 2982810371, -126.1334228515625, -1.6943273544311523, 19.02787208557129, 0.1956825703382492, -8.179108619689941, -6.154422760009766, 3.2319273948669434, 0.02008156105875969, -1.6213939189910889, 
508, 2982818704, -126.1238021850586, -1.7043325901031494, 19.023822784423828, 0.19871638715267181, -8.102855682373047, -6.11030387878418, 2.7856249809265137, 0.06301102042198181, -1.286410927772522, 
509, 2982827037, -126.11908721923828, -1.711133599281311, 19.019372940063477, 0.18868125975131989, -8.138144493103027, -6.077622413635254, 2.409287691116333, -0.07871254533529282, -1.00126051902771, 
510, 2982835370, -126.10859680175781, -1.721760630607605, 19.01598358154297, 0.18332919478416443, -8.098154067993164, -6.088133335113525, 2.8929483890533447, 0.04067540541291237, -1.3954507112503052, 
511, 2982843703, -126.10365295410156, -1.73343825340271, 19.01561164855957, 0.17055460810661316, -8.013797760009766, -6.085781097412109, 2.4525115489959717, -0.12887801229953766, -1.7630664110183716, 
512, 2982852036, -126.10594940185547, -1.7443979978561401, 19.01693344116211, 0.15601447224617004, -7.9916181564331055, -6.036034107208252, 1.3742291927337646, -0.39068111777305603, -1.75789213180542, 
513, 2982860369, -126.11011505126953, -1.756839632987976, 19.021244049072266, 0.16363492608070374, -8.048759460449219, -6.031387805938721, 1.3763041496276855, -0.5279734134674072, -2.1692824363708496, 
514, 2982868702, -126.11395263671875, -1.7709159851074219, 19.02692985534668, 0.10917092114686966, -8.088068008422852, -5.984634876251221, 1.20456063747406, -0.5936738848686218, -2.3689966201782227, 
515, 2982877035, -126.12090301513672, -1.781536340713501, 19.033905029296875, 0.12361122667789459, -8.096728324890137, -5.963489532470703, 1.0552936792373657, -0.9127376079559326, -2.1821792125701904, 
516, 2982885368, -126.1257553100586, -1.790616750717163, 19.042036056518555, 0.15537644922733307, -8.14930534362793, -5.975619792938232, 1.0932796001434326, -1.184350848197937, -2.057898998260498, 
517, 2982893701, -126.13086700439453, -1.7955058813095093, 19.051719665527344, 0.17036408185958862, -8.190940856933594, -5.998877048492432, 1.283119559288025, -1.5805648565292358, -1.8187261819839478, 
518, 2982902034, -126.12767028808594, -1.7977232933044434, 19.059785842895508, 0.2402982860803604, -8.18058967590332, -6.046642303466797, 2.0594100952148438, -1.6627864837646484, -1.3885349035263062, 
519, 2982910367, -126.12545776367188, -1.7991888523101807, 19.066312789916992, 0.30334505438804626, -8.146749496459961, -6.10700798034668, 2.148355484008789, -1.515466332435608, -1.2638063430786133, 
520, 2982918700, -126.12490844726562, -1.8032045364379883, 19.07236671447754, 0.38424456119537354, -8.12675666809082, -6.111117362976074, 1.7336227893829346, -1.340559482574463, -1.4202197790145874, 
521, 2982927033, -126.12537384033203, -1.8064301013946533, 19.0745849609375, 0.35085591673851013, -8.172637939453125, -6.104282855987549, 1.8114256858825684, -0.9736483693122864, -1.1300488710403442, 
522, 2982935366, -126.11955261230469, -1.8128937482833862, 19.078134536743164, 0.3450181186199188, -8.14046859741211, -6.126679420471191, 2.357137441635132, -0.9244433641433716, -1.4806053638458252, 
523, 2982943699, -126.11463928222656, -1.818504810333252, 19.077640533447266, 0.34848541021347046, -8.100470542907715, -6.147139072418213, 2.4460954666137695, -0.5455319881439209, -1.1695716381072998, 
524, 2982952032, -126.11090850830078, -1.8278121948242188, 19.071990966796875, 0.3468136787414551, -8.007795333862305, -6.082497596740723, 2.0711028575897217, 0.16799095273017883, -1.105587124824524, 
525, 2982960365, -126.11563110351562, -1.8355191946029663, 19.06096076965332, 0.3216204047203064, -8.034043312072754, -6.042298793792725, 1.248578667640686, 0.6259734630584717, -0.6263704299926758, 
526, 2982968698, -126.11675262451172, -1.843865990638733, 19.04967498779297, 0.2492588311433792, -8.187597274780273, -6.0020880699157715, 1.4649293422698975, 0.646580159664154, -0.613755464553833, 
527, 2982977031, -126.1100082397461, -1.8534843921661377, 19.041349411010742, 0.2353554517030716, -8.159749031066895, -5.958662033081055, 2.638598918914795, 0.49773579835891724, -1.0031687021255493, 
528, 2982985364, -126.09864044189453, -1.8640965223312378, 19.035924911499023, 0.2593030631542206, -8.12636661529541, -5.953185081481934, 2.9860177040100098, 0.23750798404216766, -1.2482842206954956, 
529, 2982993697, -126.0833969116211, -1.8750252723693848, 19.03150177001953, 0.2913295030593872, -8.080440521240234, -5.988391876220703, 3.6704301834106445, 0.21266217529773712, -1.4066311120986938, 
530, 2983002030, -126.0699234008789, -1.88679838180542, 19.02878761291504, 0.2886645793914795, -7.925852298736572, -5.963500499725342, 3.2515347003936768, 0.056953247636556625, -1.5534776449203491, 
531, 2983010363, -126.06670379638672, -1.8990049362182617, 19.0269718170166, 0.2877441644668579, -7.909279823303223, -5.94128942489624, 2.235713005065918, 0.04892319068312645, -1.7141175270080566, 
532, 2983018696, -126.06753540039062, -1.9110037088394165, 19.026174545288086, 0.22820064425468445, -7.964878559112549, -5.986142635345459, 1.5421947240829468, -0.11347105354070663, -1.7113125324249268, 
533, 2983027029, -126.06986999511719, -1.9217251539230347, 19.021974563598633, 0.21272262930870056, -7.882872104644775, -5.955618381500244, 1.5579731464385986, 0.17447134852409363, -1.4026354551315308, 
534, 2983035362, -126.07899475097656, -1.9299229383468628, 19.016544342041016, 0.24949099123477936, -8.00448989868164, -5.937396049499512, 0.5267951488494873, 0.0681210532784462, -1.0155019760131836, 
535, 2983043695, -126.08711242675781, -1.936632752418518, 19.01302719116211, 0.2583320736885071, -8.153246879577637, -5.954427242279053, 0.8687067627906799, -0.17500926554203033, -1.0622862577438354, 
536, 2983052028, -126.08824157714844, -1.9439692497253418, 19.010154724121094, 0.2964104115962982, -8.04041576385498, -5.972616195678711, 1.4962043762207031, -0.24145257472991943, -1.1107227802276611, 
537, 2983060361, -126.10015869140625, -1.9490647315979004, 19.003984451293945, 0.32369494438171387, -8.048707008361816, -5.995577335357666, 0.40160560607910156, -0.028649521991610527, -0.7163918018341064, 
538, 2983068694, -126.1097183227539, -1.9557100534439087, 18.999134063720703, 0.33507493138313293, -8.21961784362793, -6.056312084197998, 0.47639918327331543, -0.09880690276622772, -0.9048868417739868, 
539, 2983077027, -126.11085510253906, -1.9623481035232544, 18.99423599243164, 0.33289065957069397, -8.162148475646973, -6.0331830978393555, 1.698992133140564, -0.0445815771818161, -0.9571911692619324, 
540, 2983085360, -126.11056518554688, -1.9696022272109985, 18.98928451538086, 0.33943942189216614, -8.129188537597656, -6.002220153808594, 1.658291220664978, -0.04616965726017952, -0.9566788077354431, 
541, 2983093693, -126.1116714477539, -1.975874662399292, 18.985637664794922, 0.3312177360057831, -8.182299613952637, -6.019053936004639, 1.7050371170043945, -0.1910949945449829, -1.0086500644683838, 
542, 2983102026, -126.10716247558594, -1.9825870990753174, 18.981468200683594, 0.3131607174873352, -8.135722160339355, -6.049858093261719, 2.170332670211792, -0.15965354442596436, -0.9595860838890076, 
543, 2983110359, -126.10746765136719, -1.9891308546066284, 18.97660255432129, 0.34939253330230713, -8.075839042663574, -6.007716178894043, 1.7980680465698242, -0.05395638942718506, -0.9486104249954224, 
544, 2983118692, -126.105712890625, -1.9988147020339966, 18.97254753112793, 0.33345499634742737, -8.100822448730469, -5.997405052185059, 1.8354135751724243, 0.039906978607177734, -1.2539575099945068, 
545, 2983127025, -126.11006164550781, -2.0089011192321777, 18.96864128112793, 0.32795026898384094, -8.024396896362305, -6.016493320465088, 1.3162130117416382, 0.10317412763834, -1.3606153726577759, 
546, 2983135358, -126.11217498779297, -2.019104480743408, 18.96378517150879, 0.3097865581512451, -8.041533470153809, -6.015083312988281, 1.3708996772766113, 0.15453068912029266, -1.2495777606964111, 
547, 2983143691, -126.11820220947266, -2.0296993255615234, 18.957780838012695, 0.29253390431404114, -7.974097728729248, -6.019313812255859, 1.1023852825164795, 0.34171947836875916, -1.2593365907669067, 
548, 2983152024, -126.12200164794922, -2.040645122528076, 18.948867797851562, 0.2859205901622772, -7.925836563110352, -5.99765157699585, 1.151487946510315, 0.5998085141181946, -1.0347511768341064, 
549, 2983160357, -126.13921356201172, -2.0525052547454834, 18.93926429748535, 0.22892673313617706, -8.10480785369873, -5.991543292999268, -0.2553355097770691, 0.7798253297805786, -1.1286271810531616, 
550, 2983168690, -126.15328216552734, -2.0680429935455322, 18.930063247680664, 0.2580350935459137, -8.04888916015625, -5.9736328125, -0.08375854790210724, 0.9517611265182495, -1.457987904548645, 
551, 2983177023, -126.17745971679688, -2.086182117462158, 18.922243118286133, 0.26461291313171387, -7.961191654205322, -5.9496870040893555, -1.0848395824432373, 1.0527833700180054, -1.8611558675765991, 
552, 2983185356, -126.20733642578125, -2.1069860458374023, 18.917362213134766, 0.3215419352054596, -8.022178649902344, -6.020512580871582, -1.9621400833129883, 0.9077940583229065, -2.2719955444335938, 
553, 2983193689, -126.2441635131836, -2.129427671432495, 18.914018630981445, 0.319086492061615, -8.015377044677734, -6.0032453536987305, -2.582695722579956, 0.9271583557128906, -2.5939149856567383, 
554, 2983202022, -126.28179931640625, -2.150784969329834, 18.909339904785156, 0.36358991265296936, -7.965057373046875, -6.050006866455078, -2.8931915760040283, 0.9308211803436279, -2.3369529247283936, 
555, 2983210355, -126.3167953491211, -2.1759703159332275, 18.904382705688477, 0.41153937578201294, -7.852763652801514, -6.088240146636963, -2.3716986179351807, 1.2802122831344604, -2.740748643875122, 
556, 2983218688, -126.35059356689453, -2.2005088329315186, 18.89224624633789, 0.41214850544929504, -7.9622673988342285, -6.165168285369873, -2.466292142868042, 1.8791242837905884, -2.1128668785095215, 
557, 2983227021, -126.37625885009766, -2.2222981452941895, 18.872915267944336, 0.3946172893047333, -7.968273639678955, -6.11011266708374, -1.3184798955917358, 2.42907452583313, -1.3878687620162964, 
558, 2983235354, -126.39979553222656, -2.2417190074920654, 18.850143432617188, 0.38224276900291443, -7.934871673583984, -6.048905849456787, -1.286846399307251, 2.5417261123657227, -0.8607792258262634, 
559, 2983243687, -126.42932891845703, -2.255852699279785, 18.827043533325195, 0.3205537796020508, -8.024432182312012, -6.053195476531982, -1.8010390996932983, 2.2468678951263428, -0.3746594190597534, 
560, 2983252020, -126.45439910888672, -2.26827335357666, 18.806760787963867, 0.344783753156662, -8.146332740783691, -6.0803751945495605, -1.4590507745742798, 1.8039079904556274, -0.3576899468898773, 
561, 2983260353, -126.47040557861328, -2.2797257900238037, 18.791263580322266, 0.32629838585853577, -8.06058120727539, -6.060768127441406, -0.14416971802711487, 1.3218481540679932, -0.6562238335609436, 
562, 2983268686, -126.48711395263672, -2.288609027862549, 18.7795352935791, 0.3427499532699585, -8.042678833007812, -6.0845513343811035, -0.4163209795951843, 0.7265222072601318, -0.6247440576553345, 
563, 2983277019, -126.50360107421875, -2.295079469680786, 18.771419525146484, 0.37226977944374084, -8.114887237548828, -6.082241058349609, -0.16709445416927338, 0.2535552978515625, -0.7028930187225342, 
564, 2983285352, -126.51994323730469, -2.300555944442749, 18.764848709106445, 0.36091840267181396, -8.027386665344238, -6.155428886413574, -0.3480590581893921, -0.013357823714613914, -0.6605526804924011, 
565, 2983293685, -126.54220581054688, -2.3050947189331055, 18.753700256347656, 0.3717547059059143, -7.972573280334473, -6.182745933532715, -0.875328004360199, 0.4096996784210205, -0.29839304089546204, 
566, 2983302018, -126.57295227050781, -2.310208320617676, 18.7397518157959, 0.36135879158973694, -8.092130661010742, -6.180478572845459, -2.114339828491211, 0.6702221035957336, -0.10054868459701538, 
567, 2983310351, -126.6060562133789, -2.3130850791931152, 18.723405838012695, 0.2907687723636627, -8.14869499206543, -6.182735919952393, -2.198328971862793, 0.7932984232902527, 0.2378794103860855, 
568, 2983318684, -126.63880157470703, -2.315568685531616, 18.709598541259766, 0.2600608766078949, -8.159923553466797, -6.119086742401123, -2.3529109954833984, 0.4683307111263275, 0.14523272216320038, 
569, 2983327017, -126.66930389404297, -2.314124345779419, 18.69984245300293, 0.23155692219734192, -8.366905212402344, -6.1423211097717285, -1.8580949306488037, -0.15313468873500824, 0.1825014054775238, 
570, 2983335350, -126.68197631835938, -2.3102965354919434, 18.693952560424805, 0.23862598836421967, -8.22065544128418, -6.166451454162598, 0.09454214572906494, -0.7472569346427917, 0.18665093183517456, 
571, 2983343683, -126.70184326171875, -2.3000755310058594, 18.691181182861328, 0.21758948266506195, -8.157803535461426, -6.205413341522217, -0.5471328496932983, -1.454081654548645, 0.5258345603942871, 
572, 2983352016, -126.72537994384766, -2.286242961883545, 18.69356918334961, 0.22936177253723145, -8.159062385559082, -6.280918121337891, -1.1691361665725708, -2.260789394378662, 0.5563284158706665, 
573, 2983360349, -126.75296020507812, -2.265395402908325, 18.702783584594727, 0.232035830616951, -8.098492622375488, -6.241003036499023, -1.4177988767623901, -3.368732452392578, 0.6875499486923218, 
574, 2983368682, -126.78851318359375, -2.2400901317596436, 18.71664047241211, 0.12470390647649765, -8.132591247558594, -6.247645854949951, -2.5564162731170654, -4.187351226806641, 0.8339483141899109, 
575, 2983377015, -126.82917022705078, -2.2127859592437744, 18.735942840576172, 0.09282509982585907, -8.058042526245117, -6.326504230499268, -2.942140817642212, -4.804808139801025, 0.5779340267181396, 
576, 2983385348, -126.879150390625, -2.181377649307251, 18.76494026184082, 0.024607138708233833, -7.8815531730651855, -6.269279956817627, -4.219944477081299, -6.0808186531066895, 0.32833603024482727, 
577, 2983393681, -126.95293426513672, -2.1387248039245605, 18.800161361694336, -0.03899469971656799, -8.084370613098145, -6.28912878036499, -6.845596790313721, -7.436952590942383, 0.8934245705604553, 
578, 2983402014, -127.02738189697266, -2.088670492172241, 18.84210205078125, -0.12651342153549194, -8.361449241638184, -6.311150550842285, -7.103788375854492, -8.668818473815918, 1.1706987619400024, 
579, 2983410347, -127.09416961669922, -2.028010606765747, 18.893539428710938, -0.12535321712493896, -8.338666915893555, -6.339972019195557, -5.944014549255371, -10.29333782196045, 1.4275199174880981, 
580, 2983418680, -127.16175842285156, -1.9517626762390137, 18.948375701904297, -0.15233497321605682, -8.372414588928223, -6.441722869873047, -6.239858150482178, -11.805038452148438, 2.7229342460632324, 
581, 2983427013, -127.23191833496094, -1.8614871501922607, 19.000593185424805, -0.04759499803185463, -8.528813362121582, -6.613808631896973, -6.361449718475342, -12.518189430236816, 4.175978660583496, 
582, 2983435346, -127.29777526855469, -1.7599198818206787, 19.048227310180664, 0.04984554275870323, -8.625515937805176, -6.714195728302002, -6.078758239746094, -12.965709686279297, 5.636746406555176, 
583, 2983443679, -127.36266326904297, -1.6462475061416626, 19.089496612548828, 0.08121001720428467, -8.679426193237305, -6.861063003540039, -5.792582988739014, -13.188745498657227, 7.1733574867248535, 
584, 2983452012, -127.42314910888672, -1.5240983963012695, 19.120553970336914, 0.07457838952541351, -8.682455062866211, -6.883599758148193, -5.511723518371582, -12.899460792541504, 8.780319213867188, 
585, 2983460345, -127.48247528076172, -1.3944708108901978, 19.1505184173584, -0.008233100175857544, -8.785693168640137, -6.8555498123168945, -5.179340362548828, -13.2900390625, 9.491202354431152, 
586, 2983468678, -127.53851318359375, -1.2551263570785522, 19.187278747558594, -0.17118847370147705, -8.894913673400879, -6.766429424285889, -4.976373672485352, -14.71816349029541, 9.976594924926758, 
587, 2983477011, -127.59043884277344, -1.1058945655822754, 19.235994338989258, -0.27694588899612427, -8.937747955322266, -6.749962329864502, -4.265885829925537, -16.527423858642578, 9.957178115844727, 
588, 2983485344, -127.63274383544922, -0.9474861025810242, 19.292837142944336, -0.31334012746810913, -8.70932388305664, -6.7953362464904785, -3.309065818786621, -18.04273796081543, 10.292546272277832, 
589, 2983493677, -127.6800765991211, -0.7770090103149414, 19.3502197265625, -0.38098767399787903, -8.569028854370117, -6.857836723327637, -3.7318027019500732, -18.926708221435547, 11.309174537658691, 
590, 2983502010, -127.72708129882812, -0.593397855758667, 19.405771255493164, -0.47374841570854187, -8.463903427124023, -6.811215877532959, -3.9173026084899902, -19.787120819091797, 12.754205703735352, 
591, 2983510343, -127.78020477294922, -0.39475902915000916, 19.458669662475586, -0.5318280458450317, -8.50955581665039, -6.80487060546875, -4.477575778961182, -20.587711334228516, 14.276371955871582, 
592, 2983518676, -127.82793426513672, -0.18513774871826172, 19.505830764770508, -0.6098781824111938, -8.47402572631836, -6.857583999633789, -4.053327560424805, -20.929048538208008, 15.80344295501709, 
593, 2983527009, -127.87960815429688, 0.03709305450320244, 19.54928970336914, -0.6950275897979736, -8.339057922363281, -6.851357460021973, -4.3495941162109375, -21.453330993652344, 17.16864585876465, 
594, 2983535342, -127.94509887695312, 0.26781272888183594, 19.58609962463379, -0.7153279185295105, -8.469470977783203, -6.870676517486572, -6.226197242736816, -21.534709930419922, 18.528249740600586, 
595, 2983543675, -128.02137756347656, 0.5138795971870422, 19.623870849609375, -0.8405327796936035, -8.503900527954102, -6.80140495300293, -7.340827941894531, -22.715219497680664, 19.789649963378906, 
596, 2983552008, -128.10028076171875, 0.7791112661361694, 19.663461685180664, -0.8613973259925842, -8.482429504394531, -6.738903522491455, -7.877575874328613, -24.401411056518555, 21.528350830078125, 
597, 2983560341, -128.17831420898438, 1.0616488456726074, 19.713651657104492, -0.9400146007537842, -8.535542488098145, -6.89776086807251, -7.6156439781188965, -26.638919830322266, 22.249237060546875, 
598, 2983568674, -128.26119995117188, 1.3540890216827393, 19.769201278686523, -0.926983654499054, -8.560526847839355, -6.9832377433776855, -8.444087982177734, -27.986413955688477, 22.846179962158203, 
599, 2983577007, -128.351806640625, 1.6615499258041382, 19.824026107788086, -0.9141479730606079, -8.433464050292969, -6.964460372924805, -9.200709342956543, -28.993749618530273, 24.168190002441406, 
