PacketCounter,SampleTimeFine,Euler_X,Euler_Y,Euler_Z,Acc_X,Acc_Y,Acc_Z,Gyr_X,Gyr_Y,Gyr_Z,
0, 3202968231, -125.0447006225586, -1.4269826412200928, 21.39653205871582, 0, 0, 0, 0, 0, 0, 
1, 3202976564, -125.15831756591797, -1.5437028408050537, 21.374164581298828, 0.0026228176429867744, -8.328680038452148, -6.1111836433410645, -12.052921295166016, 9.21415901184082, -10.535791397094727, 
2, 3202984897, -125.29946899414062, -1.64195716381073, 21.334318161010742, -0.0330069400370121, -8.659819602966309, -6.018900394439697, -15.304089546203613, 9.663921356201172, -7.478783130645752, 
3, 3202993230, -125.41153717041016, -1.7333621978759766, 21.290176391601562, -0.019660618156194687, -8.856016159057617, -6.0041704177856445, -11.955472946166992, 9.629776000976562, -6.501099586486816, 
4, 3203001563, -125.50806427001953, -1.811910629272461, 21.247732162475586, 0.016450390219688416, -8.939982414245605, -5.872756481170654, -9.968537330627441, 8.578977584838867, -5.3284406661987305, 
5, 3203009896, -125.5698471069336, -1.8803671598434448, 21.221033096313477, -0.015359990298748016, -9.134428024291992, -5.920564651489258, -5.869234085083008, 6.345773696899414, -5.442142486572266, 
6, 3203018229, -125.5641098022461, -1.939795970916748, 21.204328536987305, 0.062461961060762405, -9.126133918762207, -5.917911052703857, 2.3856844902038574, 4.739120960235596, -5.244425296783447, 
7, 3203026562, -125.52413940429688, -1.9780089855194092, 21.199459075927734, 0.047479841858148575, -8.842742919921875, -5.989187240600586, 6.428404808044434, 2.1059510707855225, -4.008922576904297, 
8, 3203034895, -125.48661041259766, -1.9974534511566162, 21.194074630737305, 0.04495873302221298, -8.407835006713867, -6.095616817474365, 6.241574287414551, 0.8468834161758423, -2.1343445777893066, 
9, 3203043228, -125.46735382080078, -1.9820374250411987, 21.169921875, -0.14219821989536285, -8.345746040344238, -5.972094535827637, 3.8611414432525635, 0.24884231388568878, 2.5686469078063965, 
10, 3203051561, -125.47960662841797, -1.9370769262313843, 21.136518478393555, 0.025671884417533875, -8.240242958068848, -6.064781665802002, 0.1522766351699829, -0.9028633832931519, 6.106075763702393, 
11, 3203059894, -125.51045227050781, -1.8666430711746216, 21.092073440551758, -0.0461893193423748, -8.687281608581543, -6.034471035003662, -2.22857928276062, -1.6020550727844238, 9.359851837158203, 
12, 3203068227, -125.52123260498047, -1.7921099662780762, 21.03510284423828, -0.11149342358112335, -8.628939628601074, -5.91250467300415, 0.24459035694599152, -0.6651120781898499, 10.635337829589844, 
13, 3203076560, -125.55908203125, -1.7077045440673828, 20.976816177368164, -0.03601694107055664, -8.626626968383789, -5.849227428436279, -3.1038949489593506, -1.2334152460098267, 11.687955856323242, 
14, 3203084893, -125.60527038574219, -1.6059908866882324, 20.897428512573242, -0.11365680396556854, -8.819750785827637, -5.9989399909973145, -4.063737869262695, -0.38865765929222107, 14.848677635192871, 
15, 3203093226, -125.63663482666016, -1.5169329643249512, 20.814537048339844, 0.04828717187047005, -8.597879409790039, -6.016760349273682, -2.381420135498047, 0.8232161998748779, 13.860072135925293, 
16, 3203101559, -125.6650161743164, -1.4320709705352783, 20.72762680053711, 0.14752079546451569, -8.343717575073242, -6.000184059143066, -1.922912359237671, 1.5075135231018066, 13.731782913208008, 
17, 3203109892, -125.69475555419922, -1.3562976121902466, 20.641029357910156, 0.19423235952854156, -8.411994934082031, -6.2518463134765625, -2.170947551727295, 2.1002137660980225, 12.826483726501465, 
18, 3203118225, -125.74020385742188, -1.2893154621124268, 20.553852081298828, 0.13883720338344574, -8.613375663757324, -5.7421650886535645, -3.94478440284729, 2.767618179321289, 12.007980346679688, 
19, 3203126558, -125.7665023803711, -1.2445472478866577, 20.49673843383789, 0.38524413108825684, -8.090004920959473, -5.818325996398926, -1.6560500860214233, 1.387420892715454, 7.745336532592773, 
20, 3203134891, -125.81114196777344, -1.2192970514297485, 20.459341049194336, 0.33492329716682434, -7.914499759674072, -5.792743682861328, -3.7016794681549072, 0.8380464911460876, 4.458669662475586, 
21, 3203143224, -125.8694076538086, -1.216381549835205, 20.436599731445312, 0.2306542694568634, -7.939456462860107, -5.7229719161987305, -5.3993401527404785, 0.9730848670005798, 1.263908863067627, 
22, 3203151557, -125.9109878540039, -1.2271692752838135, 20.427440643310547, 0.17444944381713867, -7.71353816986084, -5.9043474197387695, -3.2628049850463867, 0.6195570230484009, -1.027348518371582, 
23, 3203159890, -125.9700927734375, -1.2418290376663208, 20.42835807800293, 0.09453757852315903, -7.676233291625977, -6.130579948425293, -5.439682483673096, -0.09055913239717484, -2.106886386871338, 
24, 3203168223, -126.04847717285156, -1.2720731496810913, 20.42421531677246, -0.26776599884033203, -8.239015579223633, -5.281877040863037, -7.666890621185303, 1.504759430885315, -3.2666728496551514, 
25, 3203176556, -126.08675384521484, -1.3105272054672241, 20.446346282958984, 0.2992878258228302, -6.932525157928467, -5.824068069458008, -2.882049560546875, -0.46329745650291443, -5.910881519317627, 
26, 3203184889, -126.22491455078125, -1.349425196647644, 20.448423385620117, 0.20231851935386658, -7.364566802978516, -5.9129319190979, -14.82474136352539, 1.5233557224273682, -4.541520118713379, 
27, 3203193222, -126.36658477783203, -1.386002779006958, 20.449962615966797, 0.06313338875770569, -7.427597999572754, -5.86306619644165, -15.344274520874023, 1.414725661277771, -4.265859127044678, 
28, 3203201555, -126.5249252319336, -1.4223114252090454, 20.443689346313477, 0.08350701630115509, -7.719118118286133, -5.889921188354492, -17.267393112182617, 2.167861223220825, -3.681086540222168, 
29, 3203209888, -126.67379760742188, -1.4641212224960327, 20.441858291625977, 0.16412916779518127, -7.8306884765625, -5.965207099914551, -16.217206954956055, 2.133307456970215, -4.514522552490234, 
30, 3203218221, -126.81889343261719, -1.5018175840377808, 20.430715560913086, 0.2610466182231903, -8.018343925476074, -6.104907035827637, -15.692679405212402, 2.7496116161346436, -3.450660228729248, 
31, 3203226554, -126.93859100341797, -1.5445632934570312, 20.412321090698242, 0.34792545437812805, -8.168184280395508, -6.2437615394592285, -12.77211856842041, 3.807941436767578, -3.3974342346191406, 
32, 3203234887, -127.03915405273438, -1.5938022136688232, 20.38865852355957, 0.46785885095596313, -8.180975914001465, -6.3448615074157715, -10.389185905456543, 4.79689359664917, -3.6362483501434326, 
33, 3203243220, -127.14326477050781, -1.6498910188674927, 20.361927032470703, 0.5133624076843262, -8.238019943237305, -6.428220272064209, -10.933860778808594, 5.582982063293457, -4.054644584655762, 
34, 3203251553, -127.26321411132812, -1.7098338603973389, 20.338520050048828, 0.49424123764038086, -8.141653060913086, -6.3645782470703125, -12.719069480895996, 5.557853698730469, -4.653914451599121, 
35, 3203259886, -127.40898132324219, -1.7697867155075073, 20.325334548950195, 0.4163588583469391, -7.978949069976807, -6.286799430847168, -15.891895294189453, 4.584834098815918, -5.38083553314209, 
36, 3203268219, -127.57894897460938, -1.825727105140686, 20.317459106445312, 0.26778826117515564, -8.107818603515625, -6.239130973815918, -18.668582916259766, 3.808927536010742, -5.372126579284668, 
37, 3203276552, -127.74503326416016, -1.8748557567596436, 20.30451011657715, 0.15273542702198029, -8.151013374328613, -6.327915191650391, -18.330820083618164, 3.7972347736358643, -4.3373236656188965, 
38, 3203284885, -127.90348815917969, -1.921737551689148, 20.287109375, 0.15213002264499664, -7.872749328613281, -6.235464572906494, -17.32538414001465, 4.070846080780029, -3.786233425140381, 
39, 3203293218, -128.05340576171875, -1.9616527557373047, 20.26013946533203, 0.15120838582515717, -7.9516754150390625, -6.299883842468262, -16.452465057373047, 4.462423324584961, -2.402334213256836, 
40, 3203301551, -128.1867218017578, -2.0026750564575195, 20.231571197509766, 0.11317954212427139, -7.9093804359436035, -6.330111503601074, -14.358548164367676, 4.706782817840576, -2.3823037147521973, 
41, 3203309884, -128.3227996826172, -2.0332772731781006, 20.196941375732422, 0.09341443330049515, -7.767383575439453, -6.281262397766113, -14.825048446655273, 4.500985622406006, -0.9293486475944519, 
42, 3203318217, -128.4645233154297, -2.048548460006714, 20.155170440673828, 0.12282250821590424, -7.9561991691589355, -6.278377056121826, -15.430196762084961, 4.03902006149292, 1.0513237714767456, 
43, 3203326550, -128.58944702148438, -2.051816701889038, 20.113845825195312, 0.08850306272506714, -8.287339210510254, -6.26139497756958, -13.518274307250977, 3.08673357963562, 2.1618292331695557, 
44, 3203334883, -128.69464111328125, -2.0463600158691406, 20.082321166992188, 0.014182324521243572, -8.563018798828125, -6.241858959197998, -11.000201225280762, 1.5195646286010742, 2.246419906616211, 
45, 3203343216, -128.76553344726562, -2.0354671478271484, 20.068845748901367, 0.09813037514686584, -8.576828002929688, -6.2916436195373535, -6.915241241455078, -0.5927261710166931, 1.4131629467010498, 
46, 3203351549, -128.8155517578125, -2.022210121154785, 20.073749542236328, 0.244765967130661, -8.358325958251953, -6.375488758087158, -4.228321075439453, -2.477869987487793, 0.2429894506931305, 
47, 3203359882, -128.85670471191406, -2.0111217498779297, 20.096525192260742, 0.34093186259269714, -8.052122116088867, -6.5501837730407715, -3.1917126178741455, -3.9974851608276367, -1.2935956716537476, 
48, 3203368215, -128.88746643066406, -2.005039930343628, 20.130146026611328, 0.44514885544776917, -7.681022644042969, -6.69991397857666, -1.8003475666046143, -4.620551586151123, -2.592698335647583, 
49, 3203376548, -128.92422485351562, -2.0020647048950195, 20.15924644470215, 0.4609155058860779, -7.5349273681640625, -6.6167755126953125, -2.6376125812530518, -3.9733691215515137, -2.531031847000122, 
50, 3203384881, -128.9748992919922, -2.0028610229492188, 20.191747665405273, 0.35427480936050415, -7.811046600341797, -6.571742057800293, -4.193062782287598, -3.9932713508605957, -3.1535093784332275, 
51, 3203393214, -129.01986694335938, -2.014193058013916, 20.232013702392578, 0.22292906045913696, -7.609270095825195, -6.426501750946045, -3.5783731937408447, -3.93182373046875, -4.713980197906494, 
52, 3203401547, -129.08238220214844, -2.0269408226013184, 20.27155876159668, 0.10349023342132568, -7.6195292472839355, -6.404794216156006, -5.58209753036499, -3.7423293590545654, -4.804039478302002, 
53, 3203409880, -129.139404296875, -2.0445163249969482, 20.317073822021484, 0.05738208815455437, -7.667296409606934, -6.387842178344727, -4.997016429901123, -3.9396612644195557, -5.698539733886719, 
54, 3203418213, -129.2003173828125, -2.0593714714050293, 20.36493682861328, -0.008820625022053719, -7.48492431640625, -6.211678981781006, -5.352132320404053, -4.346696376800537, -5.636476039886475, 
55, 3203426546, -129.26063537597656, -2.064704179763794, 20.420551300048828, -0.04379613697528839, -7.47815465927124, -6.351953506469727, -5.344654560089111, -5.796823024749756, -5.332385540008545, 
56, 3203434879, -129.32351684570312, -2.0767006874084473, 20.47418975830078, -0.0030768904834985733, -7.557459831237793, -6.439389228820801, -5.5587897300720215, -5.085541248321533, -5.819850444793701, 
57, 3203443212, -129.38368225097656, -2.0882065296173096, 20.526906967163086, 0.09923268854618073, -6.951193809509277, -6.326420307159424, -5.3418498039245605, -5.0477986335754395, -5.693737983703613, 
58, 3203451545, -129.4937286376953, -2.0967841148376465, 20.571666717529297, 0.08986016362905502, -7.555063247680664, -6.209994792938232, -11.252388000488281, -4.506159782409668, -4.838094711303711, 
59, 3203459878, -129.57919311523438, -2.1064023971557617, 20.622228622436523, 0.021673884242773056, -7.912818431854248, -6.308572769165039, -8.38339900970459, -4.977499008178711, -5.369141101837158, 
60, 3203468211, -129.6593475341797, -2.1128711700439453, 20.684160232543945, 0.06801389902830124, -7.657872200012207, -6.276869297027588, -7.589997291564941, -6.240767955780029, -5.970152854919434, 
61, 3203476544, -129.74501037597656, -2.112717866897583, 20.752994537353516, 0.1856149137020111, -7.816751003265381, -6.470451354980469, -8.32346248626709, -7.398505210876465, -5.87689208984375, 
62, 3203484877, -129.8241729736328, -2.109233856201172, 20.821269989013672, 0.32293009757995605, -7.794628620147705, -6.624800205230713, -7.440013408660889, -7.572235584259033, -5.557469844818115, 
63, 3203493210, -129.90365600585938, -2.0996851921081543, 20.88607406616211, 0.3144775331020355, -7.847040176391602, -6.67987585067749, -7.6032915115356445, -7.733949661254883, -4.7181806564331055, 
64, 3203501543, -129.97967529296875, -2.0912206172943115, 20.950368881225586, 0.2683615982532501, -7.908234119415283, -6.779289722442627, -7.085141658782959, -7.575986862182617, -4.811595916748047, 
65, 3203509876, -130.05189514160156, -2.078533172607422, 21.00920867919922, 0.19942742586135864, -7.9618144035339355, -6.770293712615967, -6.760123252868652, -7.417384147644043, -3.9886622428894043, 
66, 3203518209, -130.10891723632812, -2.062664031982422, 21.065052032470703, 0.16707377135753632, -7.992891788482666, -6.809605121612549, -4.8450493812561035, -7.36251974105835, -3.493154764175415, 
67, 3203526542, -130.14732360839844, -2.0404787063598633, 21.11437225341797, 0.20694059133529663, -7.983957767486572, -6.849674224853516, -2.74619197845459, -7.273074150085449, -2.3956100940704346, 
68, 3203534875, -130.1685028076172, -2.0133538246154785, 21.15168571472168, 0.23694410920143127, -8.001016616821289, -6.892506122589111, -0.6300460696220398, -6.530669212341309, -1.0395407676696777, 
69, 3203543208, -130.17642211914062, -1.984615445137024, 21.176122665405273, 0.2835046947002411, -8.036389350891113, -6.927313327789307, 0.8008033633232117, -5.498799800872803, 0.12768694758415222, 
70, 3203551541, -130.17018127441406, -1.9539350271224976, 21.186372756958008, 0.2760728597640991, -8.150311470031738, -6.8448357582092285, 2.5472331047058105, -4.325206756591797, 1.3776103258132935, 
71, 3203559874, -130.14222717285156, -1.9235422611236572, 21.194124221801758, 0.2421412467956543, -8.208223342895508, -6.79652214050293, 5.036769866943359, -4.097149848937988, 1.5702933073043823, 
72, 3203568207, -130.0972442626953, -1.892845869064331, 21.201425552368164, 0.1721530556678772, -8.390628814697266, -6.7575554847717285, 7.185279846191406, -4.052748203277588, 1.6091117858886719, 
73, 3203576540, -130.02474975585938, -1.8655225038528442, 21.212615966796875, 0.12173255532979965, -8.292438507080078, -6.738210678100586, 10.393847465515137, -4.171623706817627, 1.0282577276229858, 
74, 3203584873, -129.93743896484375, -1.8409110307693481, 21.223217010498047, 0.1582508683204651, -8.097296714782715, -6.740780830383301, 12.269527435302734, -3.8828749656677246, 0.8011365532875061, 
75, 3203593206, -129.84959411621094, -1.8263338804244995, 21.23212432861328, 0.17225217819213867, -7.88053035736084, -6.702706813812256, 12.228622436523438, -2.9763617515563965, 0.03957400098443031, 
76, 3203601539, -129.77442932128906, -1.8175086975097656, 21.234834671020508, 0.1751144528388977, -7.722907066345215, -6.662229061126709, 10.783439636230469, -1.9332470893859863, -0.03879275545477867, 
77, 3203609872, -129.71649169921875, -1.8164408206939697, 21.23111915588379, 0.14341963827610016, -7.723546504974365, -6.630002021789551, 8.588043212890625, -0.775176465511322, -0.2354588806629181, 
78, 3203618205, -129.66932678222656, -1.8222088813781738, 21.22353172302246, 0.10770716518163681, -7.672250270843506, -6.514915466308594, 7.38478946685791, 0.13378316164016724, -0.5979772210121155, 
79, 3203626538, -129.6349334716797, -1.8306657075881958, 21.213891983032227, 0.06278730183839798, -7.57627010345459, -6.367650032043457, 5.741981506347656, 0.5028715133666992, -0.6623840928077698, 
80, 3203634871, -129.61697387695312, -1.8361220359802246, 21.205745697021484, -0.026066439226269722, -7.651963710784912, -6.258776664733887, 3.874856948852539, 0.16204844415187836, -0.5291131734848022, 
81, 3203643204, -129.60342407226562, -1.8402773141860962, 21.206167221069336, -0.05057995393872261, -7.851375102996826, -6.214186191558838, 3.278020143508911, -0.7552613615989685, -1.0340466499328613, 
82, 3203651537, -129.5728302001953, -1.8435519933700562, 21.216325759887695, -0.0053557138890028, -7.940270900726318, -6.364344596862793, 5.463081359863281, -1.6940103769302368, -1.7283077239990234, 
83, 3203659870, -129.5128173828125, -1.8499979972839355, 21.22944450378418, 0.09994766116142273, -7.591769218444824, -6.327742576599121, 8.903753280639648, -1.7554463148117065, -2.215503692626953, 
84, 3203668203, -129.4641876220703, -1.8572241067886353, 21.24329948425293, 0.14319337904453278, -7.438683032989502, -6.3684821128845215, 7.6393303871154785, -1.7353386878967285, -2.378819704055786, 
85, 3203676536, -129.41357421875, -1.8682396411895752, 21.2537784576416, 0.17955516278743744, -7.481082439422607, -6.389144420623779, 7.766043663024902, -1.165165901184082, -2.4372200965881348, 
86, 3203684869, -129.35667419433594, -1.8825961351394653, 21.258411407470703, 0.25427600741386414, -7.497536659240723, -6.356764316558838, 8.598404884338379, -0.3378261625766754, -2.335557222366333, 
87, 3203693202, -129.302978515625, -1.9008457660675049, 21.259117126464844, 0.27022603154182434, -7.5073652267456055, -6.369804382324219, 8.09549331665039, 0.28730207681655884, -2.3654232025146484, 
88, 3203701535, -129.26199340820312, -1.9216549396514893, 21.250869750976562, 0.30651217699050903, -7.428005218505859, -6.287474632263184, 6.637942314147949, 1.3438893556594849, -1.9622554779052734, 
89, 3203709868, -129.2464599609375, -1.9403948783874512, 21.237131118774414, 0.309339702129364, -7.490189075469971, -6.275362014770508, 3.456820249557495, 1.6640287637710571, -1.3156622648239136, 
90, 3203718201, -129.2494659423828, -1.96346914768219, 21.222549438476562, 0.3373117744922638, -7.521503448486328, -6.202912330627441, 1.3332080841064453, 2.1048367023468018, -1.691589593887329, 
91, 3203726534, -129.26710510253906, -1.988622784614563, 21.208038330078125, 0.2669098377227783, -7.600390434265137, -6.21203088760376, -0.5270769596099854, 2.224186658859253, -1.8537663221359253, 
92, 3203734867, -129.2880096435547, -2.016613483428955, 21.191314697265625, 0.29402509331703186, -7.685769081115723, -6.326018810272217, -0.8267122507095337, 2.6759192943573, -1.9823241233825684, 
93, 3203743200, -129.30616760253906, -2.054380416870117, 21.174495697021484, 0.3734779953956604, -7.640815258026123, -6.289279460906982, -0.5982716679573059, 3.3977413177490234, -2.8476369380950928, 
94, 3203751533, -129.32485961914062, -2.0982584953308105, 21.159719467163086, 0.4233871102333069, -7.561739921569824, -6.302593231201172, -0.5577883720397949, 3.7023069858551025, -3.606497049331665, 
95, 3203759866, -129.33847045898438, -2.1503829956054688, 21.145532608032227, 0.4533867835998535, -7.632660865783691, -6.3619914054870605, -0.04622088745236397, 4.246891498565674, -4.377485752105713, 
96, 3203768199, -129.34725952148438, -2.20731258392334, 21.138032913208008, 0.45041754841804504, -7.455735683441162, -6.250558376312256, 0.6670458912849426, 4.024636745452881, -5.365375518798828, 
97, 3203776532, -129.3750762939453, -2.2684478759765625, 21.133390426635742, 0.5256742835044861, -7.43516731262207, -6.1924567222595215, -1.7121963500976562, 4.048687934875488, -5.9377760887146, 
98, 3203784865, -129.40931701660156, -2.337475061416626, 21.13335418701172, 0.5051467418670654, -7.542757987976074, -6.203960418701172, -2.3564200401306152, 4.257521629333496, -7.050971508026123, 
99, 3203793198, -129.4514617919922, -2.4246530532836914, 21.14205551147461, 0.5002787709236145, -7.371419429779053, -6.191705703735352, -3.3634183406829834, 4.80507755279541, -9.360095977783203, 
100, 3203801531, -129.5142059326172, -2.5209414958953857, 21.158538818359375, 0.5972614884376526, -7.287922382354736, -6.178356170654297, -5.693083763122559, 4.8161163330078125, -10.82661247253418, 
101, 3203809864, -129.57713317871094, -2.625626802444458, 21.174558639526367, 0.5979242920875549, -7.373088359832764, -6.249560832977295, -5.815828800201416, 5.482369899749756, -11.528010368347168, 
102, 3203818197, -129.63087463378906, -2.737771987915039, 21.19390296936035, 0.603898823261261, -7.405028343200684, -6.293364524841309, -4.585998058319092, 5.789726257324219, -12.495418548583984, 
103, 3203826530, -129.67446899414062, -2.844572067260742, 21.214218139648438, 0.5852811336517334, -7.355194568634033, -6.2564520835876465, -3.465157985687256, 5.26971960067749, -12.039344787597656, 
104, 3203834863, -129.72607421875, -2.9424240589141846, 21.22945785522461, 0.5735645890235901, -7.284400463104248, -6.336999416351318, -4.348132610321045, 5.090113639831543, -10.848438262939453, 
105, 3203843196, -129.78860473632812, -3.0329599380493164, 21.239839553833008, 0.5485333204269409, -7.285755634307861, -6.286369800567627, -5.788266658782959, 4.955970287322998, -9.768180847167969, 
106, 3203851529, -129.86256408691406, -3.1184260845184326, 21.25139808654785, 0.546909749507904, -7.446742057800293, -6.253922462463379, -7.048512935638428, 4.5019073486328125, -9.407892227172852, 
107, 3203859862, -129.93064880371094, -3.20699405670166, 21.269338607788086, 0.5356982946395874, -7.655823230743408, -6.295080661773682, -6.400435447692871, 4.13279390335083, -10.15133285522461, 
108, 3203868195, -129.99021911621094, -3.3014707565307617, 21.296613693237305, 0.5690613985061646, -7.684053421020508, -6.305568695068359, -5.209756851196289, 3.7735018730163574, -11.434016227722168, 
109, 3203876528, -130.04180908203125, -3.3988113403320312, 21.327505111694336, 0.5481002926826477, -7.699975490570068, -6.379967212677002, -4.324028968811035, 3.6420371532440186, -11.944570541381836, 
110, 3203884861, -130.08880615234375, -3.498866558074951, 21.35693359375, 0.5688120722770691, -7.66717529296875, -6.457973957061768, -3.6767570972442627, 4.025584697723389, -12.103737831115723, 
111, 3203893194, -130.13619995117188, -3.6006665229797363, 21.374317169189453, 0.5750725865364075, -7.677008152008057, -6.5633931159973145, -3.9077467918395996, 5.244156837463379, -11.302142143249512, 
112, 3203901527, -130.18800354003906, -3.704054355621338, 21.377674102783203, 0.6033653020858765, -7.795494079589844, -6.636175632476807, -4.438807487487793, 6.6939239501953125, -10.383564949035645, 
113, 3203909860, -130.23533630371094, -3.809910297393799, 21.366165161132812, 0.6660035848617554, -7.664874076843262, -6.608711242675781, -4.121778964996338, 8.219121932983398, -9.42943286895752, 
114, 3203918193, -130.286865234375, -3.9126949310302734, 21.346240997314453, 0.6933376789093018, -7.765031814575195, -6.542736053466797, -4.5941572189331055, 8.786888122558594, -8.516644477844238, 
115, 3203926526, -130.33299255371094, -4.014123916625977, 21.32838249206543, 0.6406254172325134, -8.033125877380371, -6.564307689666748, -4.031719207763672, 8.470653533935547, -8.516568183898926, 
116, 3203934859, -130.36122131347656, -4.11934232711792, 21.31913185119629, 0.6014195680618286, -8.029105186462402, -6.5597028732299805, -1.716012954711914, 8.013465881347656, -9.551895141601562, 
117, 3203943192, -130.3794403076172, -4.229619979858398, 21.31747055053711, 0.5813828110694885, -7.694220066070557, -6.543171405792236, -0.5493229627609253, 7.688766956329346, -10.572047233581543, 
118, 3203951525, -130.4108123779297, -4.339851379394531, 21.316329956054688, 0.5523979663848877, -7.498454570770264, -6.5763468742370605, -2.0269954204559326, 7.672078609466553, -10.6318941116333, 
119, 3203959858, -130.45126342773438, -4.446187973022461, 21.30677032470703, 0.527535617351532, -7.473826885223389, -6.676074504852295, -3.2911605834960938, 8.111516952514648, -9.589804649353027, 
120, 3203968191, -130.50047302246094, -4.550159454345703, 21.294261932373047, 0.5142471790313721, -7.491356372833252, -6.671138286590576, -4.274580955505371, 8.233787536621094, -9.165825843811035, 
121, 3203976524, -130.55894470214844, -4.655790328979492, 21.28352165222168, 0.5049828886985779, -7.440694332122803, -6.641272068023682, -5.468690872192383, 8.179766654968262, -9.41840648651123, 
122, 3203984857, -130.63575744628906, -4.757384300231934, 21.276199340820312, 0.49182185530662537, -7.536362171173096, -6.510119915008545, -7.542638778686523, 7.598003387451172, -9.334917068481445, 
123, 3203993190, -130.6986846923828, -4.862874507904053, 21.282180786132812, 0.46159228682518005, -7.682229995727539, -6.576965808868408, -5.841597080230713, 6.6707682609558105, -10.6868896484375, 
124, 3204001523, -130.7586669921875, -4.964565753936768, 21.29828643798828, 0.4928038716316223, -7.739202976226807, -6.591170310974121, -5.281643867492676, 5.504397392272949, -11.15245246887207, 
125, 3204009856, -130.81369018554688, -5.063520431518555, 21.32694435119629, 0.5241231918334961, -7.77160120010376, -6.591646671295166, -4.650533676147461, 4.12945032119751, -11.846699714660645, 
126, 3204018189, -130.8725128173828, -5.157135009765625, 21.363420486450195, 0.521765947341919, -7.749425411224365, -6.593657970428467, -4.92130184173584, 3.05145001411438, -12.001129150390625, 
127, 3204026522, -130.92636108398438, -5.247923851013184, 21.407590866088867, 0.5770123600959778, -7.813088417053223, -6.526052474975586, -4.3295488357543945, 2.109140157699585, -12.307973861694336, 
128, 3204034855, -130.96420288085938, -5.340789318084717, 21.46337127685547, 0.5888950824737549, -7.923587799072266, -6.683650970458984, -2.1761860847473145, 1.2750641107559204, -13.438638687133789, 
129, 3204043188, -130.99440002441406, -5.425753593444824, 21.526901245117188, 0.6022346019744873, -7.932522773742676, -6.53318452835083, -1.257133960723877, -0.07872536033391953, -13.293495178222656, 
130, 3204051521, -131.01947021484375, -5.497992515563965, 21.596080780029297, 0.7313784956932068, -7.618407726287842, -6.7155866622924805, -0.47467029094696045, -1.5392236709594727, -12.618356704711914, 
131, 3204059854, -131.05796813964844, -5.56061315536499, 21.654008865356445, 0.7409752011299133, -7.860024929046631, -6.85182523727417, -2.2998130321502686, -1.3193765878677368, -10.827868461608887, 
132, 3204068187, -131.07931518554688, -5.624783515930176, 21.71430206298828, 0.7698736190795898, -7.594141483306885, -6.815474987030029, -0.10833541303873062, -1.3609485626220703, -11.194100379943848, 
133, 3204076520, -131.1108856201172, -5.679623126983643, 21.775341033935547, 0.7330774068832397, -7.522183418273926, -6.654519557952881, -1.4196052551269531, -2.20332407951355, -10.369503021240234, 
134, 3204084853, -131.13824462890625, -5.724623203277588, 21.83634376525879, 0.6370323300361633, -7.817914962768555, -6.650361061096191, -0.8099093437194824, -2.925107002258301, -9.517186164855957, 
135, 3204093186, -131.149658203125, -5.756098747253418, 21.901193618774414, 0.5534961223602295, -8.01629638671875, -6.597324371337891, 1.0585980415344238, -4.38136625289917, -8.556154251098633, 
136, 3204101519, -131.14308166503906, -5.7789201736450195, 21.97020149230957, 0.5206469297409058, -7.829648017883301, -6.577559471130371, 3.3634183406829834, -5.389516830444336, -8.143943786621094, 
137, 3204109852, -131.14295959472656, -5.7863264083862305, 22.039934158325195, 0.6169818043708801, -7.827639579772949, -6.574363708496094, 2.5077104568481445, -6.718907833099365, -6.764066219329834, 
138, 3204118185, -131.1472625732422, -5.781185150146484, 22.114919662475586, 0.7160855531692505, -7.888943195343018, -6.611530780792236, 2.1305665969848633, -8.132481575012207, -6.089131832122803, 
139, 3204126518, -131.15704345703125, -5.775264263153076, 22.189573287963867, 0.7031698226928711, -7.690291881561279, -6.724445343017578, 1.377354383468628, -8.214524269104004, -5.94879150390625, 
140, 3204134851, -131.20504760742188, -5.760385036468506, 22.263364791870117, 0.6837100982666016, -7.713633060455322, -6.803895950317383, -3.1323397159576416, -8.787092208862305, -5.119492053985596, 
141, 3204143184, -131.2657470703125, -5.74492883682251, 22.330944061279297, 0.8614472150802612, -7.456057071685791, -6.878702163696289, -4.819830894470215, -8.32470417022705, -4.541199684143066, 
142, 3204151517, -131.34886169433594, -5.72865104675293, 22.37935447692871, 0.8974212408065796, -7.455620288848877, -6.984230995178223, -7.655467987060547, -6.613122463226318, -3.015782356262207, 
143, 3204159850, -131.44017028808594, -5.709849834442139, 22.41720962524414, 0.9114260077476501, -7.262809753417969, -7.050299167633057, -8.855009078979492, -5.916005611419678, -1.9134732484817505, 
144, 3204168183, -131.5459442138672, -5.6906538009643555, 22.438114166259766, 0.9508088231086731, -7.5055766105651855, -6.926055431365967, -10.707275390625, -4.3766913414001465, -0.5958767533302307, 
145, 3204176516, -131.64181518554688, -5.674129962921143, 22.448415756225586, 0.8588051199913025, -7.707706451416016, -6.910189628601074, -9.731912612915039, -3.2716939449310303, 0.04789862781763077, 
146, 3204184849, -131.73509216308594, -5.652990818023682, 22.454059600830078, 0.7740066647529602, -7.659825801849365, -6.793384075164795, -9.382455825805664, -3.1694157123565674, 0.7798253297805786, 
147, 3204193182, -131.83364868164062, -5.6298017501831055, 22.464479446411133, 0.7932405471801758, -7.54029655456543, -6.732519626617432, -10.053754806518555, -3.8168673515319824, 0.6274719834327698, 
148, 3204201515, -131.9326934814453, -5.604756832122803, 22.481035232543945, 0.8323804140090942, -7.407229423522949, -6.697575092315674, -9.952143669128418, -4.457428455352783, 0.24955956637859344, 
149, 3204209848, -132.02980041503906, -5.577422618865967, 22.500638961791992, 0.7665659189224243, -7.432772159576416, -6.678881645202637, -9.774738311767578, -4.970353126525879, 0.2526588439941406, 
150, 3204218181, -132.11727905273438, -5.552140235900879, 22.527193069458008, 0.7620983123779297, -7.574742317199707, -6.633319854736328, -8.447563171386719, -5.364504337310791, -0.5406525135040283, 
151, 3204226514, -132.1866455078125, -5.529543399810791, 22.561573028564453, 0.7325965166091919, -7.48499870300293, -6.660538196563721, -6.276947975158691, -5.899291515350342, -1.363497018814087, 
152, 3204234847, -132.252685546875, -5.507266521453857, 22.59859848022461, 0.7974109649658203, -7.354233741760254, -6.681297779083252, -5.757477283477783, -6.0486345291137695, -1.6630425453186035, 
153, 3204243180, -132.32196044921875, -5.490444660186768, 22.637962341308594, 0.8158382773399353, -7.3122782707214355, -6.77617073059082, -6.21021032333374, -5.872255802154541, -2.2882096767425537, 
154, 3204251513, -132.38746643066406, -5.481123924255371, 22.673185348510742, 0.8832757472991943, -7.361199855804443, -6.922313213348389, -5.719621181488037, -4.83777379989624, -2.6778793334960938, 
155, 3204259846, -132.44374084472656, -5.4827046394348145, 22.695287704467773, 0.8891377449035645, -7.398806095123291, -6.932565689086914, -4.848147869110107, -2.857024908065796, -2.5402281284332275, 
156, 3204268179, -132.4976806640625, -5.4877753257751465, 22.703529357910156, 0.9205033183097839, -7.5070481300354, -6.920055389404297, -4.640108108520508, -1.2899712324142456, -1.7846333980560303, 
157, 3204276512, -132.5492706298828, -5.496631145477295, 22.70676612854004, 0.8977409601211548, -7.591594219207764, -6.848568916320801, -4.502790927886963, -0.6009740233421326, -1.6618645191192627, 
158, 3204284845, -132.6007843017578, -5.510471820831299, 22.708663940429688, 0.9120933413505554, -7.698841094970703, -6.867985725402832, -4.423309326171875, -0.019940679892897606, -2.04848575592041, 
159, 3204293178, -132.64248657226562, -5.532652854919434, 22.7084903717041, 0.9442189335823059, -7.62835168838501, -6.948348522186279, -3.35432505607605, 0.7837700247764587, -2.5629220008850098, 
160, 3204301511, -132.68373107910156, -5.557945251464844, 22.704557418823242, 0.9527965784072876, -7.480432510375977, -6.894308090209961, -3.259296417236328, 1.4270715713500977, -2.5844380855560303, 
161, 3204309844, -132.7328643798828, -5.583204746246338, 22.69512176513672, 0.9945586919784546, -7.523468017578125, -6.997138023376465, -4.353178024291992, 1.849321961402893, -2.080836534500122, 
162, 3204318177, -132.79759216308594, -5.609221458435059, 22.683753967285156, 0.9677467346191406, -7.513863563537598, -7.0570292472839355, -6.166627407073975, 2.1407735347747803, -2.042633056640625, 
163, 3204326510, -132.88308715820312, -5.630956172943115, 22.665586471557617, 0.939075231552124, -7.219105243682861, -7.014798164367676, -8.822286605834961, 2.329397439956665, -1.0550504922866821, 
164, 3204334843, -133.00279235839844, -5.642042636871338, 22.6375789642334, 0.9085894227027893, -7.108423233032227, -7.04226016998291, -12.957653999328613, 2.3802926540374756, 0.6346567273139954, 
165, 3204343176, -133.14820861816406, -5.645809650421143, 22.60166358947754, 0.894660472869873, -7.140352249145508, -6.978762149810791, -16.22290802001953, 2.4075465202331543, 1.979891300201416, 
166, 3204351509, -133.3064422607422, -5.648346900939941, 22.56406593322754, 0.8743596076965332, -7.216057300567627, -6.940850257873535, -17.69704818725586, 2.505328893661499, 2.183511734008789, 
167, 3204359842, -133.4674072265625, -5.657198429107666, 22.530517578125, 0.8605234622955322, -7.1822662353515625, -6.879982948303223, -18.061124801635742, 2.606889009475708, 1.3618320226669312, 
168, 3204368175, -133.62303161621094, -5.674919128417969, 22.504968643188477, 0.8895828723907471, -7.291049480438232, -6.805526256561279, -17.241369247436523, 2.699613094329834, -0.11130668967962265, 
169, 3204376508, -133.77011108398438, -5.688731670379639, 22.49417495727539, 0.8750288486480713, -7.400650978088379, -6.7826337814331055, -16.129247665405273, 1.0422946214675903, -0.9257882833480835, 
170, 3204384841, -133.9119873046875, -5.700873851776123, 22.492618560791016, 0.8346892595291138, -7.56434965133667, -6.8922224044799805, -15.303802490234375, 0.16959187388420105, -1.59209144115448, 
171, 3204393174, -134.0375518798828, -5.715690612792969, 22.4929256439209, 0.9423882961273193, -7.452430725097656, -7.0417094230651855, -13.414840698242188, 0.173395574092865, -1.9231680631637573, 
172, 3204401507, -134.166015625, -5.729588508605957, 22.495040893554688, 1.062902569770813, -7.280869483947754, -7.009324550628662, -13.656333923339844, 0.007287250831723213, -2.042991876602173, 
173, 3204409840, -134.307373046875, -5.738200664520264, 22.497093200683594, 1.0612995624542236, -7.401595592498779, -6.99876594543457, -15.289165496826172, -0.49058955907821655, -1.5308862924575806, 
174, 3204418173, -134.45460510253906, -5.741537570953369, 22.50992774963379, 1.0587974786758423, -7.485860824584961, -7.023608207702637, -15.778447151184082, -1.7857221364974976, -2.027111053466797, 
175, 3204426506, -134.60963439941406, -5.7500786781311035, 22.53261375427246, 1.0993835926055908, -7.2356390953063965, -7.05649995803833, -16.680788040161133, -2.2480595111846924, -3.248884677886963, 
176, 3204434839, -134.7999267578125, -5.764977931976318, 22.56123924255371, 1.1250958442687988, -7.158122539520264, -7.105662822723389, -20.75688934326172, -2.144578218460083, -4.344919204711914, 
177, 3204443172, -135.01870727539062, -5.790776252746582, 22.605091094970703, 1.1062629222869873, -7.001960277557373, -7.13794469833374, -24.075010299682617, -2.5567374229431152, -6.506224155426025, 
178, 3204451505, -135.25840759277344, -5.808655738830566, 22.645843505859375, 1.1206839084625244, -6.6731367111206055, -7.125231742858887, -26.53892707824707, -2.8855481147766113, -5.631549835205078, 
179, 3204459838, -135.51612854003906, -5.810190677642822, 22.676485061645508, 0.9191358685493469, -6.791843414306641, -7.133752822875977, -28.90597915649414, -3.4727678298950195, -3.3526368141174316, 
180, 3204468171, -135.76309204101562, -5.799996852874756, 22.697866439819336, 0.8126099705696106, -6.954492568969727, -7.1721272468566895, -27.647245407104492, -3.6338558197021484, -1.6341511011123657, 
181, 3204476504, -135.99209594726562, -5.781229496002197, 22.716379165649414, 0.84369295835495, -6.865014553070068, -7.084123611450195, -25.60544204711914, -4.190645694732666, -0.6382303833961487, 
182, 3204484837, -136.20982360839844, -5.752547264099121, 22.7291316986084, 0.7098240852355957, -6.811097145080566, -7.073126316070557, -24.239124298095703, -4.508543491363525, 0.6244113445281982, 
183, 3204493170, -136.41368103027344, -5.71854305267334, 22.733640670776367, 0.6662905812263489, -6.8416948318481445, -7.182975769042969, -22.76206398010254, -4.3573808670043945, 1.811670184135437, 
184, 3204501503, -136.61744689941406, -5.677186012268066, 22.72359275817871, 0.7738391160964966, -6.885000705718994, -7.180701732635498, -22.8406982421875, -3.7477610111236572, 3.618370771408081, 
185, 3204509836, -136.8277130126953, -5.6261372566223145, 22.704975128173828, 0.7462172508239746, -6.968847274780273, -7.223803520202637, -23.8013858795166, -3.9706315994262695, 5.200384140014648, 
186, 3204518169, -137.03990173339844, -5.567572593688965, 22.681671142578125, 0.7289522886276245, -7.3119215965271, -7.175242900848389, -24.00642967224121, -4.204284191131592, 6.164914131164551, 
187, 3204526502, -137.22816467285156, -5.508024215698242, 22.66643714904785, 0.6362928748130798, -7.680685520172119, -7.2510786056518555, -21.11642074584961, -5.034159183502197, 5.577091693878174, 
188, 3204534835, -137.38217163085938, -5.44986629486084, 22.659027099609375, 0.6526921987533569, -7.73341703414917, -7.371987342834473, -16.8382511138916, -5.500337600708008, 4.712251663208008, 
189, 3204543168, -137.50424194335938, -5.3927483558654785, 22.662246704101562, 0.6814164519309998, -7.73020601272583, -7.4057769775390625, -12.958436965942383, -6.343149185180664, 3.734121322631836, 
190, 3204551501, -137.60020446777344, -5.338283061981201, 22.672119140625, 0.7330392599105835, -7.580686569213867, -7.495023727416992, -9.68151569366455, -6.586009502410889, 2.8707287311553955, 
191, 3204559834, -137.68348693847656, -5.286825180053711, 22.685571670532227, 0.6788763403892517, -7.476690292358398, -7.527641296386719, -8.195660591125488, -6.680705547332764, 2.3548834323883057, 
192, 3204568167, -137.75318908691406, -5.234631061553955, 22.700847625732422, 0.6325162649154663, -7.435605525970459, -7.5528788566589355, -6.479952812194824, -6.829509735107422, 2.1893250942230225, 
193, 3204576500, -137.7906036376953, -5.177937030792236, 22.70952796936035, 0.5422881245613098, -7.545876502990723, -7.696524620056152, -2.7433488368988037, -6.769471645355225, 3.187948226928711, 
194, 3204584833, -137.78192138671875, -5.120064735412598, 22.724699020385742, 0.4796614646911621, -7.366696834564209, -7.5492963790893555, 2.9178202152252197, -7.328936576843262, 2.6465394496917725, 
195, 3204593166, -137.74267578125, -5.06067419052124, 22.745153427124023, 0.46200260519981384, -7.091914176940918, -7.474194526672363, 6.578248977661133, -7.955026626586914, 2.3639636039733887, 
196, 3204601499, -137.68682861328125, -4.994503974914551, 22.762048721313477, 0.35632777214050293, -7.061086177825928, -7.422784805297852, 8.589144706726074, -8.196440696716309, 3.171478033065796, 
197, 3204609832, -137.61178588867188, -4.924548625946045, 22.77684783935547, 0.2771540880203247, -7.153639793395996, -7.460089683532715, 10.809900283813477, -8.430299758911133, 3.731482744216919, 
198, 3204618165, -137.5143585205078, -4.847129821777344, 22.777551651000977, 0.23152634501457214, -7.11439847946167, -7.396419525146484, 13.405597686767578, -7.876392364501953, 5.524710178375244, 
199, 3204626498, -137.40060424804688, -4.75739860534668, 22.77446174621582, 0.2716730535030365, -7.040220260620117, -7.284555912017822, 15.271493911743164, -8.719050407409668, 6.935364246368408, 
200, 3204634831, -137.27210998535156, -4.653421401977539, 22.77057647705078, 0.41332951188087463, -6.967641830444336, -7.385571479797363, 17.087223052978516, -9.817452430725098, 8.115911483764648, 
201, 3204643164, -137.14401245117188, -4.537721633911133, 22.77788543701172, 0.5163878202438354, -6.971259117126465, -7.36766242980957, 17.09351348876953, -11.816965103149414, 8.172711372375488, 
202, 3204651497, -137.0164031982422, -4.415027141571045, 22.793304443359375, 0.614531397819519, -7.060022830963135, -7.547881603240967, 17.158266067504883, -12.995579719543457, 7.9888529777526855, 
203, 3204659830, -136.88453674316406, -4.286859035491943, 22.8023624420166, 0.5494771003723145, -7.053905963897705, -7.6389923095703125, 17.559436798095703, -13.014714241027832, 9.090137481689453, 
204, 3204668163, -136.75277709960938, -4.1503190994262695, 22.806886672973633, 0.47406572103500366, -7.035701274871826, -7.63416051864624, 17.553083419799805, -13.274187088012695, 10.129179000854492, 
205, 3204676496, -136.61880493164062, -4.004894733428955, 22.816070556640625, 0.48819732666015625, -7.019796848297119, -7.691735744476318, 17.806053161621094, -14.487814903259277, 10.553966522216797, 
206, 3204684829, -136.5006561279297, -3.854276180267334, 22.82996940612793, 0.5553308725357056, -6.909933567047119, -7.669262409210205, 15.996135711669922, -15.221673965454102, 10.531336784362793, 
207, 3204693162, -136.40354919433594, -3.707339286804199, 22.836294174194336, 0.4787493944168091, -7.086913108825684, -7.703610420227051, 13.352450370788574, -14.337458610534668, 10.981775283813477, 
208, 3204701495, -136.30921936035156, -3.552410840988159, 22.83292579650879, 0.4303511083126068, -7.191887378692627, -7.73736572265625, 12.999740600585938, -14.130455017089844, 12.432513236999512, 
209, 3204709828, -136.22694396972656, -3.394882917404175, 22.820226669311523, 0.46969276666641235, -7.095357894897461, -7.525403022766113, 11.432071685791016, -13.643030166625977, 13.548577308654785, 
210, 3204718161, -136.14984130859375, -3.224167585372925, 22.809648513793945, 0.424800843000412, -7.243628025054932, -7.504053592681885, 10.883851051330566, -14.85832405090332, 14.407193183898926, 
211, 3204726494, -136.0706024169922, -3.043752670288086, 22.807586669921875, 0.40151557326316833, -7.433037281036377, -7.493570804595947, 11.14634895324707, -16.467388153076172, 14.56889820098877, 
212, 3204734827, -135.9639892578125, -2.857271671295166, 22.81761360168457, 0.45944318175315857, -7.484601020812988, -7.657565593719482, 14.561321258544922, -17.890392303466797, 13.984793663024902, 
213, 3204743160, -135.84410095214844, -2.6674580574035645, 22.832677841186523, 0.49218305945396423, -7.142287731170654, -7.674071788787842, 16.125261306762695, -18.649839401245117, 13.93626594543457, 
214, 3204751493, -135.73460388183594, -2.4767932891845703, 22.844938278198242, 0.48693031072616577, -7.218414306640625, -7.81202507019043, 14.906966209411621, -18.37860870361328, 14.209209442138672, 
215, 3204759826, -135.6214141845703, -2.2862279415130615, 22.85367202758789, 0.4778934419155121, -7.187424182891846, -7.670478343963623, 15.278849601745605, -18.12747573852539, 14.610727310180664, 
216, 3204768159, -135.52000427246094, -2.099391222000122, 22.85576057434082, 0.4061824679374695, -7.269554138183594, -7.624049663543701, 13.883642196655273, -17.141298294067383, 14.822173118591309, 
217, 3204776492, -135.41270446777344, -1.9197572469711304, 22.851211547851562, 0.30551600456237793, -7.5568695068359375, -7.736671447753906, 14.508447647094727, -16.019472122192383, 14.890816688537598, 
218, 3204784825, -135.2831268310547, -1.7553178071975708, 22.831865310668945, 0.3344170153141022, -7.3804450035095215, -7.840970516204834, 17.1839599609375, -13.361481666564941, 14.82645034790039, 
219, 3204793158, -135.15682983398438, -1.6142338514328003, 22.780189514160156, 0.3833988308906555, -7.012704849243164, -7.804665565490723, 16.623620986938477, -8.687162399291992, 15.708091735839844, 
220, 3204801491, -135.05445861816406, -1.4821135997772217, 22.68912696838379, 0.37510302662849426, -6.820825099945068, -7.64009428024292, 13.699100494384766, -4.477883338928223, 18.234615325927734, 
221, 3204809824, -134.9850311279297, -1.3460208177566528, 22.572999954223633, 0.3135611414909363, -6.918822765350342, -7.229132652282715, 9.636899948120117, -2.740302085876465, 20.78101921081543, 
222, 3204818157, -134.92855834960938, -1.1997790336608887, 22.455039978027344, 0.15903609991073608, -7.334392547607422, -6.997252464294434, 8.174633026123047, -3.341801166534424, 21.724721908569336, 
223, 3204826490, -134.83917236328125, -1.0510295629501343, 22.34966468811035, 0.06642600893974304, -7.55073881149292, -7.037509918212891, 12.128987312316895, -4.672947883605957, 20.951889038085938, 
224, 3204834823, -134.71656799316406, -0.9032466411590576, 22.267824172973633, 0.007825089618563652, -7.4182329177856445, -6.878541946411133, 16.257671356201172, -6.481749534606934, 18.812410354614258, 
225, 3204843156, -134.57186889648438, -0.7637402415275574, 22.200523376464844, 0.029543936252593994, -7.080832481384277, -6.911345958709717, 18.896888732910156, -7.054049491882324, 16.967315673828125, 
226, 3204851489, -134.43438720703125, -0.6334907412528992, 22.145315170288086, -0.01158689334988594, -7.004127025604248, -6.800844669342041, 18.12697410583496, -7.191290378570557, 15.096575736999512, 
227, 3204859822, -134.29432678222656, -0.5198809504508972, 22.09662437438965, -0.08316072821617126, -7.0144124031066895, -6.824528694152832, 18.397611618041992, -6.390665054321289, 13.215362548828125, 
228, 3204868155, -134.1544647216797, -0.42247408628463745, 22.056167602539062, -0.02517492137849331, -6.780708312988281, -6.747090816497803, 18.456241607666016, -5.633507251739502, 11.067480087280273, 
229, 3204876488, -134.02955627441406, -0.34243273735046387, 22.025283813476562, -0.05313848704099655, -6.636070728302002, -6.606293678283691, 16.6138858795166, -5.055675506591797, 8.860837936401367, 
230, 3204884821, -133.92398071289062, -0.2719774544239044, 21.996110916137695, -0.06845187395811081, -6.682170391082764, -6.652267932891846, 14.360033988952637, -4.311939239501953, 7.818797588348389, 
231, 3204893154, -133.8206024169922, -0.2200905829668045, 21.96162986755371, -0.12918199598789215, -6.444423198699951, -6.663325786590576, 14.040342330932617, -2.3676650524139404, 6.737518310546875, 
232, 3204901487, -133.7482452392578, -0.18706640601158142, 21.91688346862793, -0.20775531232357025, -6.311314105987549, -6.567444801330566, 10.373434066772461, 0.17392069101333618, 5.882155895233154, 
233, 3204909820, -133.7111358642578, -0.17107345163822174, 21.86957359313965, -0.24304886162281036, -6.5617804527282715, -6.45009183883667, 6.08831262588501, 1.7427031993865967, 4.694411277770996, 
234, 3204918153, -133.686279296875, -0.163042813539505, 21.83959197998047, -0.23554278910160065, -6.839038848876953, -6.307472229003906, 4.681641578674316, 0.9735203385353088, 2.483120918273926, 
235, 3204926486, -133.65748596191406, -0.15211446583271027, 21.839725494384766, -0.2597621977329254, -6.984167575836182, -6.152322292327881, 5.108874320983887, -1.951241374015808, 0.3197808861732483, 
236, 3204934819, -133.6107940673828, -0.13438239693641663, 21.874183654785156, -0.2616775631904602, -6.973910808563232, -6.279666900634766, 7.32316255569458, -5.419703960418701, -2.011960029602051, 
237, 3204943152, -133.56297302246094, -0.11870706081390381, 21.93683624267578, -0.1730242520570755, -6.781745910644531, -6.309724807739258, 7.406280040740967, -7.777955055236816, -4.438114643096924, 
238, 3204951485, -133.52870178222656, -0.098423071205616, 22.026540756225586, -0.1601523607969284, -6.675607204437256, -6.354041576385498, 5.840494632720947, -10.437239646911621, -6.350103378295898, 
239, 3204959818, -133.52601623535156, -0.07186044007539749, 22.150320053100586, -0.15793779492378235, -6.720367431640625, -6.239831447601318, 1.9946963787078857, -14.000105857849121, -8.53681755065918, 
240, 3204968151, -133.53138732910156, -0.04681241512298584, 22.30632209777832, -0.17942367494106293, -6.9474196434021, -6.495239734649658, 1.0813950300216675, -16.60115623474121, -11.41450023651123, 
241, 3204976484, -133.52777099609375, -0.026590781286358833, 22.46197509765625, -0.21919220685958862, -7.337040901184082, -6.975472450256348, 2.0972814559936523, -16.24854850769043, -11.722820281982422, 
242, 3204984817, -133.4915008544922, -0.018537135794758797, 22.605348587036133, -0.0372001938521862, -6.873544216156006, -7.123280048370361, 6.065324306488037, -14.09862995147705, -11.844550132751465, 
243, 3204993150, -133.48104858398438, -0.017347827553749084, 22.71829605102539, 0.09381051361560822, -6.493235111236572, -7.143527507781982, 2.910008430480957, -10.966647148132324, -9.841517448425293, 
244, 3205001483, -133.49664306640625, -0.00947432592511177, 22.803421020507812, 0.05400526523590088, -6.898163318634033, -7.140219211578369, -0.16124160587787628, -9.017927169799805, -7.045657157897949, 
245, 3205009816, -133.49798583984375, -0.004641113802790642, 22.879444122314453, 0.06100337579846382, -7.361640453338623, -7.1823883056640625, 1.4885843992233276, -8.051733016967773, -6.476816177368164, 
246, 3205018149, -133.47840881347656, -0.002013198332861066, 22.951995849609375, 0.12156380712985992, -7.513465404510498, -7.238008975982666, 4.059907913208008, -7.4907941818237305, -6.464099407196045, 
247, 3205026482, -133.43997192382812, -0.001281514298170805, 23.0186710357666, 0.14499178528785706, -7.577365875244141, -7.233114242553711, 6.262565612792969, -6.903216361999512, -6.056947231292725, 
248, 3205034815, -133.38546752929688, 0.0016563209937885404, 23.0704345703125, 0.22751325368881226, -7.595524787902832, -7.312760829925537, 8.251562118530273, -5.71512508392334, -4.7152228355407715, 
249, 3205043148, -133.31698608398438, 0.008709345012903214, 23.11130142211914, 0.24544304609298706, -7.6334757804870605, -7.241461277008057, 9.867935180664062, -5.1811323165893555, -3.36956524848938, 
250, 3205051481, -133.23870849609375, 0.02369307354092598, 23.149253845214844, 0.29238978028297424, -7.671812057495117, -7.230244159698486, 11.105515480041504, -5.508047580718994, -2.5100033283233643, 
251, 3205059814, -133.14181518554688, 0.038437750190496445, 23.186107635498047, 0.26028144359588623, -7.751643657684326, -7.2842278480529785, 13.274065971374512, -5.470855236053467, -2.3558309078216553, 
252, 3205068147, -133.03436279296875, 0.05312436819076538, 23.212757110595703, 0.2114763855934143, -7.54349946975708, -7.276217937469482, 14.601295471191406, -4.501356601715088, -1.5942686796188354, 
253, 3205076480, -132.9321746826172, 0.062435634434223175, 23.223617553710938, 0.17877072095870972, -7.37021541595459, -7.244268417358398, 13.913347244262695, -2.7500858306884766, -0.6887797117233276, 
254, 3205084813, -132.84017944335938, 0.0684812068939209, 23.218740463256836, 0.11119996011257172, -7.324665546417236, -7.199036121368408, 12.752997398376465, -1.0289623737335205, 0.23595838248729706, 
255, 3205093146, -132.75010681152344, 0.06696745753288269, 23.199443817138672, 0.08478499948978424, -7.318089008331299, -7.157918453216553, 12.46218490600586, 0.7873944640159607, 0.8200013637542725, 
256, 3205101479, -132.6623992919922, 0.06143328920006752, 23.176259994506836, 0.002984302816912532, -7.339128017425537, -6.942685604095459, 12.240633964538574, 1.5305017232894897, 0.7064918875694275, 
257, 3205109812, -132.56846618652344, 0.05581033602356911, 23.157838821411133, -0.08459107577800751, -7.230085372924805, -6.905148983001709, 12.925507545471191, 1.0489031076431274, 0.38265109062194824, 
258, 3205118145, -132.47760009765625, 0.05508292093873024, 23.1416015625, -0.15789741277694702, -7.146359443664551, -6.845058441162109, 12.620366096496582, 0.5298305153846741, 0.5608749985694885, 
259, 3205126478, -132.3949432373047, 0.05483362078666687, 23.125057220458984, -0.22848139703273773, -7.288267612457275, -6.801994800567627, 11.571717262268066, 0.4506568908691406, 0.6997040510177612, 
260, 3205134811, -132.30665588378906, 0.05993833392858505, 23.10296058654785, -0.2537168562412262, -7.233942031860352, -6.905734539031982, 12.312970161437988, 0.5792660117149353, 1.5439494848251343, 
261, 3205143144, -132.2300567626953, 0.06637237966060638, 23.0765380859375, -0.23572991788387299, -7.312492847442627, -6.818833351135254, 10.845785140991211, 0.7914031147956848, 2.084435224533081, 
262, 3205151477, -132.15203857421875, 0.07327769696712494, 23.045278549194336, -0.19166551530361176, -7.2990007400512695, -6.853741645812988, 11.083664894104004, 1.258991003036499, 2.4407548904418945, 
263, 3205159810, -132.07815551757812, 0.08209121227264404, 23.003463745117188, -0.10756545513868332, -7.239409446716309, -6.912957191467285, 10.524813652038574, 1.9778032302856445, 3.5324599742889404, 
264, 3205168143, -132.01341247558594, 0.09179692715406418, 22.948087692260742, 0.0041453479789197445, -7.094371795654297, -6.951542377471924, 9.495031356811523, 3.189728021621704, 4.61907958984375, 
265, 3205176476, -131.97195434570312, 0.10485626757144928, 22.878292083740234, 0.047402746975421906, -7.103414535522461, -6.834499359130859, 6.640951633453369, 4.142820358276367, 6.150592803955078, 
266, 3205184809, -131.9475555419922, 0.11991515010595322, 22.803123474121094, -0.03500933200120926, -7.292472839355469, -6.780411243438721, 4.666325092315674, 4.532618522644043, 6.67868185043335, 
267, 3205193142, -131.92413330078125, 0.13245968520641327, 22.726560592651367, -0.1035318449139595, -7.495542049407959, -6.824526309967041, 4.480161190032959, 4.792526721954346, 6.641464710235596, 
268, 3205201475, -131.89573669433594, 0.1392011046409607, 22.650293350219727, -0.18927428126335144, -7.582942008972168, -6.8360185623168945, 5.151241302490234, 5.304850101470947, 6.020229816436768, 
269, 3205209808, -131.86097717285156, 0.13608482480049133, 22.570240020751953, -0.2297784686088562, -7.658156871795654, -6.82509183883667, 5.847192764282227, 6.36821174621582, 5.5161542892456055, 
270, 3205218141, -131.83958435058594, 0.13986961543560028, 22.494993209838867, -0.2714383900165558, -7.645290374755859, -6.444228649139404, 4.310235977172852, 5.458163261413574, 5.670351505279541, 
271, 3205226474, -131.82615661621094, 0.15454089641571045, 22.444141387939453, -0.33003467321395874, -7.91396427154541, -6.314969539642334, 3.2791855335235596, 2.337555170059204, 4.763761043548584, 
272, 3205234807, -131.79385375976562, 0.17415300011634827, 22.42464256286621, -0.35385164618492126, -8.213316917419434, -6.356289863586426, 5.599477291107178, -0.7920818328857422, 2.6185946464538574, 
273, 3205243140, -131.7295379638672, 0.1911628395318985, 22.43448829650879, -0.2082914412021637, -7.936447620391846, -6.565229892730713, 9.363924980163574, -3.2747926712036133, 0.11728759855031967, 
274, 3205251473, -131.6607208251953, 0.20383377373218536, 22.45428466796875, -0.13064934313297272, -7.578958988189697, -6.659108638763428, 9.965860366821289, -3.7495787143707275, -1.13982093334198, 
275, 3205259806, -131.60577392578125, 0.2072318196296692, 22.47258186340332, -0.14567895233631134, -7.450467586517334, -6.723029613494873, 8.237690925598145, -2.947852373123169, -1.7739009857177734, 
276, 3205268139, -131.56500244140625, 0.21282321214675903, 22.486392974853516, -0.18955926597118378, -7.388425350189209, -6.67551851272583, 6.598150730133057, -2.6483712196350098, -1.2944025993347168, 
277, 3205276472, -131.53167724609375, 0.21628360450267792, 22.496904373168945, -0.11546861380338669, -7.511687755584717, -6.684680461883545, 5.64487886428833, -2.2542319297790527, -1.1427278518676758, 
278, 3205284805, -131.4915771484375, 0.21977296471595764, 22.50658416748047, -0.069985531270504, -7.4821367263793945, -6.681076526641846, 6.52051305770874, -2.1142373085021973, -1.1576993465423584, 
279, 3205293138, -131.4508514404297, 0.21640822291374207, 22.51519203186035, -0.0474918968975544, -7.417767524719238, -6.679375648498535, 6.533884048461914, -1.541964054107666, -1.6051287651062012, 
280, 3205301471, -131.42420959472656, 0.2081325352191925, 22.519752502441406, -0.036311425268650055, -7.426807403564453, -6.6717209815979, 4.909019470214844, -0.717595636844635, -1.8041514158248901, 
281, 3205309804, -131.39732360839844, 0.18862371146678925, 22.519641876220703, -0.0540255531668663, -7.584189414978027, -6.659876346588135, 4.8765153884887695, 0.5237854719161987, -2.364872694015503, 
282, 3205318137, -131.36819458007812, 0.16182874143123627, 22.52475929260254, -0.07224776595830917, -7.4560089111328125, -6.589649677276611, 5.205171585083008, 0.6986539363861084, -3.5166425704956055, 
283, 3205326470, -131.34535217285156, 0.13077348470687866, 22.52790069580078, -0.02219182625412941, -7.268930912017822, -6.686219215393066, 4.390945911407471, 1.1448795795440674, -3.6646666526794434, 
284, 3205334803, -131.3396759033203, 0.09901133179664612, 22.52826690673828, 0.05979844555258751, -7.200294494628906, -6.603842258453369, 2.393855094909668, 1.5187705755233765, -3.5875940322875977, 
285, 3205343136, -131.3419189453125, 0.06714504212141037, 22.526931762695312, 0.05206560716032982, -7.312348365783691, -6.604343414306641, 1.383219838142395, 1.6113402843475342, -3.3847031593322754, 
286, 3205351469, -131.34579467773438, 0.03600534424185753, 22.527360916137695, 0.02210731990635395, -7.384056568145752, -6.605864524841309, 1.247387409210205, 1.4639302492141724, -3.534571647644043, 
287, 3205359802, -131.3451690673828, -0.000331264192936942, 22.525659561157227, -0.0003719261148944497, -7.522863388061523, -6.627752304077148, 1.7271168231964111, 1.9992166757583618, -3.7571091651916504, 
288, 3205368135, -131.3393096923828, -0.036402348428964615, 22.52767562866211, -0.008013631217181683, -7.595603942871094, -6.533993721008301, 2.416139602661133, 1.709673285484314, -4.105846881866455, 
289, 3205376468, -131.32534790039062, -0.07676622271537781, 22.534076690673828, 0.08744361251592636, -7.513692855834961, -6.638725757598877, 3.3255984783172607, 1.5862895250320435, -4.764388084411621, 
290, 3205384801, -131.31260681152344, -0.12325598299503326, 22.53448486328125, 0.1631447672843933, -7.25460147857666, -6.690580368041992, 3.243044137954712, 2.6806576251983643, -4.9164605140686035, 
291, 3205393134, -131.31097412109375, -0.18163293600082397, 22.520246505737305, 0.21691419184207916, -7.096447944641113, -6.805050373077393, 1.8420988321304321, 4.873236179351807, -4.75311803817749, 
292, 3205401467, -131.330810546875, -0.2522900700569153, 22.48897933959961, 0.25663095712661743, -7.004216194152832, -6.730139255523682, -0.6806086301803589, 7.448184013366699, -4.585345268249512, 
293, 3205409800, -131.37258911132812, -0.3221364915370941, 22.45046615600586, 0.28870880603790283, -6.927773475646973, -6.621565818786621, -3.3849854469299316, 7.972456455230713, -3.857106924057007, 
294, 3205418133, -131.43258666992188, -0.39273813366889954, 22.40843391418457, 0.18100009858608246, -7.178476333618164, -6.588716983795166, -5.514962673187256, 8.418221473693848, -3.7099785804748535, 
295, 3205426466, -131.48825073242188, -0.46666333079338074, 22.376588821411133, 0.05320654436945915, -7.463631629943848, -6.4934306144714355, -5.059413433074951, 7.7030720710754395, -4.735726833343506, 
296, 3205434799, -131.54071044921875, -0.5339108109474182, 22.3571834564209, -0.02771453559398651, -7.483007907867432, -6.329248905181885, -4.598165988922119, 6.120151042938232, -5.190494537353516, 
297, 3205443132, -131.59535217285156, -0.5941919684410095, 22.359460830688477, -0.0023757610470056534, -7.486839771270752, -6.3333868980407715, -4.905023097991943, 3.559161901473999, -6.21321964263916, 
298, 3205451465, -131.63888549804688, -0.6516132950782776, 22.376575469970703, 0.017936596646904945, -7.535157680511475, -6.494880676269531, -3.4842658042907715, 2.072370767593384, -7.204758644104004, 
299, 3205459798, -131.67237854003906, -0.7113423347473145, 22.40208625793457, 0.05163400247693062, -7.318488121032715, -6.613509178161621, -2.3301398754119873, 1.4430291652679443, -8.007431983947754, 
300, 3205468131, -131.71099853515625, -0.7727048397064209, 22.4228515625, 0.1258268654346466, -7.140087127685547, -6.719149112701416, -2.8868141174316406, 2.0670433044433594, -7.845832347869873, 
301, 3205476464, -131.7640380859375, -0.8430362939834595, 22.430429458618164, 0.12668541073799133, -7.128877639770508, -6.790700435638428, -4.701633930206299, 3.9059150218963623, -7.519891738891602, 
302, 3205484797, -131.83177185058594, -0.9244806170463562, 22.421913146972656, 0.11703924834728241, -7.2051496505737305, -6.8714094161987305, -6.430262088775635, 6.304585933685303, -7.29676628112793, 
303, 3205493130, -131.90948486328125, -1.0172947645187378, 22.393394470214844, 0.18153351545333862, -7.239550590515137, -6.880892276763916, -7.730133056640625, 8.948128700256348, -6.628055572509766, 
304, 3205501463, -132.00936889648438, -1.1141055822372437, 22.350610733032227, 0.22018304467201233, -7.216958045959473, -6.752950668334961, -10.363188743591309, 10.614477157592773, -5.896090507507324, 
305, 3205509796, -132.13853454589844, -1.2064567804336548, 22.308387756347656, 0.2538323402404785, -7.389984130859375, -6.556362152099609, -13.95433235168457, 10.151859283447266, -5.451300621032715, 
306, 3205518129, -132.2692413330078, -1.2928954362869263, 22.281688690185547, 0.2479678839445114, -7.752333164215088, -6.639362335205078, -14.036744117736816, 8.370989799499512, -6.219329357147217, 
307, 3205526462, -132.3740997314453, -1.379450798034668, 22.269987106323242, 0.19677242636680603, -7.849853038787842, -6.715112686157227, -10.966365814208984, 6.996017932891846, -7.352324962615967, 
308, 3205534795, -132.4615478515625, -1.4610705375671387, 22.26838493347168, 0.13117362558841705, -7.551906585693359, -6.787539005279541, -8.7803316116333, 5.777406692504883, -7.7897772789001465, 
309, 3205543128, -132.55535888671875, -1.5398838520050049, 22.26725959777832, 0.03191528469324112, -7.583045482635498, -6.729930877685547, -9.61151123046875, 5.454871654510498, -7.4986958503723145, 
310, 3205551461, -132.64100646972656, -1.6129968166351318, 22.26483154296875, -0.03704218566417694, -7.706862449645996, -6.817521572113037, -8.568268775939941, 5.183104515075684, -6.948835372924805, 
311, 3205559794, -132.7026824951172, -1.6839643716812134, 22.26096534729004, 0.03602318465709686, -7.733776092529297, -6.889487266540527, -5.763177394866943, 5.078957557678223, -6.566286087036133, 
312, 3205568127, -132.7378692626953, -1.7562055587768555, 22.255800247192383, 0.12112390249967575, -7.478689193725586, -6.962593078613281, -2.5295469760894775, 5.369410037994385, -6.6344075202941895, 
313, 3205576460, -132.78317260742188, -1.8292540311813354, 22.244060516357422, 0.21742363274097443, -7.347543239593506, -6.985285758972168, -3.8276760578155518, 5.950801849365234, -6.098174095153809, 
314, 3205584793, -132.84169006347656, -1.8981062173843384, 22.221309661865234, 0.25655895471572876, -7.418365955352783, -7.118869781494141, -5.398994445800781, 6.6501593589782715, -4.894265651702881, 
315, 3205593126, -132.9017791748047, -1.961574673652649, 22.19265365600586, 0.24639923870563507, -7.541964054107666, -6.945293426513672, -5.679713726043701, 6.665388107299805, -3.861513137817383, 
316, 3205601459, -132.96224975585938, -2.0111119747161865, 22.171735763549805, 0.22957658767700195, -7.645323276519775, -6.874320983886719, -5.626307487487793, 4.917625904083252, -3.3332955837249756, 
317, 3205609792, -133.0112762451172, -2.055541753768921, 22.158390045166016, 0.20928281545639038, -7.808650970458984, -6.966554164886475, -4.291345119476318, 3.7713119983673096, -3.4273769855499268, 
318, 3205618125, -133.0485076904297, -2.0911664962768555, 22.1535587310791, 0.20629821717739105, -7.9026875495910645, -6.991199493408203, -2.776160478591919, 2.3733127117156982, -3.416388511657715, 
319, 3205626458, -133.0736541748047, -2.1204605102539062, 22.15215301513672, 0.2264740914106369, -7.713973045349121, -7.019004821777344, -1.3727564811706543, 1.4893909692764282, -3.070826292037964, 
320, 3205634791, -133.0962371826172, -2.1466622352600098, 22.15294647216797, 0.2650325894355774, -7.81831693649292, -7.1448073387146, -0.9978410005569458, 1.1111454963684082, -3.050616979598999, 
321, 3205643124, -133.10159301757812, -2.1736319065093994, 22.152624130249023, 0.30250000953674316, -7.863523483276367, -7.223714828491211, 1.0071773529052734, 1.2042533159255981, -2.9546918869018555, 
322, 3205651457, -133.0968017578125, -2.203671932220459, 22.146080017089844, 0.3459376096725464, -7.589698314666748, -7.198299407958984, 2.2564220428466797, 2.0731263160705566, -2.781705856323242, 
323, 3205659790, -133.09507751464844, -2.237673759460449, 22.12811279296875, 0.34683331847190857, -7.493789196014404, -7.226543426513672, 1.7731070518493652, 3.3260984420776367, -2.1259560585021973, 
324, 3205668123, -133.0990753173828, -2.2729103565216064, 22.09807014465332, 0.37187808752059937, -7.5020060539245605, -7.235991477966309, 1.0872344970703125, 4.551406383514404, -1.3183391094207764, 
325, 3205676456, -133.10862731933594, -2.3054730892181396, 22.06305503845215, 0.3326864242553711, -7.4543914794921875, -7.010507583618164, 0.33526474237442017, 4.701748847961426, -0.6017424464225769, 
326, 3205684789, -133.1195068359375, -2.324944019317627, 22.035547256469727, 0.2953069806098938, -7.508803367614746, -6.903964996337891, 0.2741747498512268, 3.039487361907959, -0.13653667271137238, 
327, 3205693122, -133.11460876464844, -2.342205047607422, 22.02326011657715, 0.25541606545448303, -7.511993885040283, -6.8954267501831055, 2.177619695663452, 1.4560668468475342, -1.1242470741271973, 
328, 3205701455, -133.10052490234375, -2.3522374629974365, 22.022661209106445, 0.1928759217262268, -7.257682800292969, -6.883275985717773, 3.396780014038086, -0.09253141283988953, -1.5198845863342285, 
329, 3205709788, -133.0919189453125, -2.359332323074341, 22.023578643798828, 0.2205701619386673, -7.15238618850708, -6.954622745513916, 2.6872406005859375, -0.5336854457855225, -1.315278172492981, 
330, 3205718121, -133.0956268310547, -2.3721606731414795, 22.019577026367188, 0.19160746037960052, -7.238502025604248, -7.011345863342285, 1.2443394660949707, 0.43621042370796204, -1.4854847192764282, 
331, 3205726454, -133.09715270996094, -2.391916275024414, 22.00541114807129, 0.18210795521736145, -7.094052791595459, -7.0063700675964355, 1.3972822427749634, 1.8260900974273682, -1.1893330812454224, 
332, 3205734787, -133.1085968017578, -2.415492296218872, 21.97539710998535, 0.18933306634426117, -6.968656063079834, -6.983883380889893, 0.1847042739391327, 3.595188856124878, -0.2956523299217224, 
333, 3205743120, -133.13809204101562, -2.4427974224090576, 21.937536239624023, 0.17647971212863922, -6.953018665313721, -6.877685070037842, -2.0804524421691895, 4.518453598022461, 0.09351757913827896, 
334, 3205751453, -133.18601989746094, -2.464794874191284, 21.903064727783203, 0.22307026386260986, -7.118114948272705, -6.732926368713379, -4.214899063110352, 3.855057954788208, 0.21143269538879395, 
335, 3205759786, -133.24034118652344, -2.486130714416504, 21.880615234375, 0.17397120594978333, -7.351430416107178, -6.732658863067627, -4.987027645111084, 2.6808626651763916, -0.6411627531051636, 
336, 3205768119, -133.2842254638672, -2.5056469440460205, 21.873537063598633, 0.15548694133758545, -7.394960880279541, -6.799492359161377, -3.5891308784484863, 1.2601436376571655, -1.814755916595459, 
337, 3205776452, -133.31747436523438, -2.5280964374542236, 21.872623443603516, 0.23790673911571503, -7.205855846405029, -6.879598617553711, -2.345508337020874, 0.8908631205558777, -2.5041117668151855, 
338, 3205784785, -133.35340881347656, -2.548034429550171, 21.874300003051758, 0.2672692537307739, -7.279838562011719, -6.86611270904541, -2.591494560241699, 0.5331987142562866, -2.5707473754882812, 
339, 3205793118, -133.3807830810547, -2.5680415630340576, 21.880863189697266, 0.29582473635673523, -7.412263870239258, -6.944734573364258, -1.5991350412368774, 0.04387718066573143, -2.902284860610962, 
340, 3205801451, -133.39871215820312, -2.5877068042755127, 21.89026641845703, 0.36148345470428467, -7.296438217163086, -6.954716682434082, -0.38735130429267883, -0.15876984596252441, -3.1818385124206543, 
341, 3205809784, -133.41542053222656, -2.6071739196777344, 21.901145935058594, 0.3867112398147583, -7.286558151245117, -6.957271575927734, -0.2978039085865021, -0.3759016990661621, -3.210219144821167, 
342, 3205818117, -133.43515014648438, -2.628178358078003, 21.908607482910156, 0.42325231432914734, -7.291599750518799, -7.0121660232543945, -0.6157277822494507, 0.12143709510564804, -3.137500524520874, 
343, 3205826450, -133.4552459716797, -2.6551802158355713, 21.91218376159668, 0.42534422874450684, -7.291533470153809, -7.06968355178833, -0.7409813404083252, 0.8818981051445007, -3.266186237335205, 
344, 3205834783, -133.4739990234375, -2.6882176399230957, 21.90670394897461, 0.40102168917655945, -7.195364952087402, -7.105116367340088, -0.5693660378456116, 2.243960380554199, -3.1156258583068848, 
345, 3205843116, -133.4972686767578, -2.7241315841674805, 21.893232345581055, 0.39409711956977844, -7.228281021118164, -7.0479631423950195, -1.2171756029129028, 3.103318214416504, -2.6345396041870117, 
346, 3205851449, -133.51959228515625, -2.7620413303375244, 21.877553939819336, 0.37873077392578125, -7.223584175109863, -6.971434593200684, -1.0568817853927612, 3.5347135066986084, -2.6951682567596436, 
347, 3205859782, -133.54661560058594, -2.793516159057617, 21.86363983154297, 0.26997897028923035, -7.22014045715332, -6.778239727020264, -1.6753886938095093, 2.7748923301696777, -2.209035634994507, 
348, 3205868115, -133.5762176513672, -2.8172659873962402, 21.86150360107422, 0.22748081386089325, -7.415830612182617, -6.782892227172852, -1.85284423828125, 1.1871943473815918, -2.580800771713257, 
349, 3205876448, -133.5907745361328, -2.843611240386963, 21.86857032775879, 0.21235275268554688, -7.396086692810059, -6.905516624450684, -0.05398200452327728, 0.5316234827041626, -3.491719961166382, 
350, 3205884781, -133.5985107421875, -2.8735101222991943, 21.879724502563477, 0.3034191131591797, -7.191764831542969, -6.951444149017334, 0.8497267365455627, 0.546940803527832, -4.211633205413818, 
351, 3205893114, -133.62060546875, -2.9190542697906494, 21.89153289794922, 0.32777929306030273, -7.111664772033691, -6.936826229095459, -0.9277092814445496, 1.7103650569915771, -5.552026271820068, 
352, 3205901447, -133.6539306640625, -2.970885992050171, 21.902095794677734, 0.3767692446708679, -7.155353546142578, -7.002036094665527, -2.2238919734954834, 2.417522668838501, -6.067051410675049, 
353, 3205909780, -133.6856689453125, -3.021756887435913, 21.917360305786133, 0.42420268058776855, -7.277197360992432, -6.952304363250732, -2.0637261867523193, 1.8564940690994263, -6.296811103820801, 
354, 3205918113, -133.71253967285156, -3.065779685974121, 21.937458038330078, 0.44196614623069763, -7.415190696716309, -6.954047203063965, -1.3844878673553467, 0.9484951496124268, -6.178269386291504, 
355, 3205926446, -133.72613525390625, -3.1062285900115967, 21.95908546447754, 0.409013569355011, -7.369819641113281, -6.990228652954102, 0.15914124250411987, 0.4478648900985718, -5.917233943939209, 
356, 3205934779, -133.74008178710938, -3.144773006439209, 21.98334503173828, 0.4559360146522522, -7.249063491821289, -7.054263591766357, 0.1947450339794159, 0.13911092281341553, -6.043486595153809, 
357, 3205943112, -133.75607299804688, -3.176992177963257, 22.003864288330078, 0.4826335310935974, -7.360752105712891, -7.098520278930664, -0.1332196295261383, -0.13711299002170563, -5.110833644866943, 
358, 3205951445, -133.76649475097656, -3.2019455432891846, 22.018692016601562, 0.47183287143707275, -7.409686088562012, -7.148523330688477, 0.5578139424324036, -0.16948938369750977, -4.084035873413086, 
359, 3205959778, -133.77713012695312, -3.2200193405151367, 22.024805068969727, 0.46176764369010925, -7.197536468505859, -7.138258457183838, 0.41757601499557495, -0.06219135597348213, -2.689391851425171, 
360, 3205968111, -133.79559326171875, -3.231544017791748, 22.0217342376709, 0.4739471673965454, -7.242867946624756, -7.187198162078857, -0.5275892019271851, 0.26377537846565247, -1.4383033514022827, 
361, 3205976444, -133.81439208984375, -3.240356683731079, 22.01461410522461, 0.45136573910713196, -7.501128673553467, -7.0789618492126465, -0.6561214327812195, 0.31300589442253113, -0.7904680371284485, 
362, 3205984777, -133.8215789794922, -3.241509199142456, 22.011585235595703, 0.4125049412250519, -7.5913543701171875, -7.051844120025635, 0.8290815353393555, -0.6011277437210083, -0.5409342050552368, 
363, 3205993110, -133.81784057617188, -3.242532968521118, 22.014209747314453, 0.38012441992759705, -7.517954349517822, -6.993415832519531, 2.1162991523742676, -1.176833152770996, -0.926249086856842, 
364, 3206001443, -133.81430053710938, -3.237673282623291, 22.02591323852539, 0.34638893604278564, -7.527933597564697, -6.975314140319824, 2.214683771133423, -2.373812437057495, -1.2425081729888916, 
365, 3206009776, -133.80116271972656, -3.2301924228668213, 22.041908264160156, 0.310545951128006, -7.6341681480407715, -7.030214786529541, 3.3340132236480713, -3.039590358734131, -1.2970280647277832, 
366, 3206018109, -133.7787322998047, -3.220714807510376, 22.054096221923828, 0.30539417266845703, -7.609082221984863, -7.106257915496826, 4.481159210205078, -2.798034906387329, -0.8829098343849182, 
367, 3206026442, -133.7519989013672, -3.2102572917938232, 22.06022834777832, 0.3566129505634308, -7.465970516204834, -7.077559947967529, 4.900784492492676, -2.434556484222412, -0.2212301641702652, 
368, 3206034775, -133.7268524169922, -3.199521541595459, 22.057506561279297, 0.434228777885437, -7.4136481285095215, -7.120634078979492, 4.705911636352539, -1.6105719804763794, 0.4624522626399994, 
369, 3206043108, -133.7022247314453, -3.1918342113494873, 22.046945571899414, 0.43174272775650024, -7.486471652984619, -7.118670463562012, 4.532861709594727, -0.7577715516090393, 0.9240719676017761, 
370, 3206051441, -133.6730499267578, -3.1824145317077637, 22.036958694458008, 0.4168950617313385, -7.502736568450928, -7.045689105987549, 5.140341281890869, -0.8727153539657593, 0.9464460015296936, 
371, 3206059774, -133.6405487060547, -3.172848701477051, 22.03189468383789, 0.40122565627098083, -7.521052360534668, -7.009468078613281, 5.518792152404785, -1.3860759735107422, 0.6327740550041199, 
372, 3206068107, -133.5963592529297, -3.161562204360962, 22.029434204101562, 0.36734017729759216, -7.569287300109863, -7.058273792266846, 6.991969585418701, -1.6783088445663452, 0.4863119423389435, 
373, 3206076440, -133.54293823242188, -3.1523494720458984, 22.027616500854492, 0.38752344250679016, -7.4812517166137695, -7.01505708694458, 8.047479629516602, -1.6377613544464111, 0.33503416180610657, 
374, 3206084773, -133.4892120361328, -3.1422629356384277, 22.024534225463867, 0.37454113364219666, -7.355440616607666, -6.988005638122559, 8.134747505187988, -1.5223435163497925, 0.43326476216316223, 
375, 3206093106, -133.4403076171875, -3.132438898086548, 22.01804542541504, 0.32349076867103577, -7.420161247253418, -6.970970630645752, 7.475976943969727, -1.2808529138565063, 0.772371768951416, 
376, 3206101439, -133.38865661621094, -3.119476079940796, 22.009462356567383, 0.28090205788612366, -7.4530463218688965, -6.929938793182373, 7.843438625335693, -1.2777022123336792, 1.1391676664352417, 
377, 3206109772, -133.339599609375, -3.1048431396484375, 22.000125885009766, 0.2688295841217041, -7.39598274230957, -6.9098687171936035, 7.478025913238525, -1.4274688959121704, 1.425714135169983, 
378, 3206118105, -133.2919158935547, -3.0888383388519287, 21.990915298461914, 0.33101698756217957, -7.345142841339111, -6.92672872543335, 7.364862442016602, -1.4686564207077026, 1.4559903144836426, 
379, 3206126438, -133.2450714111328, -3.0718166828155518, 21.979822158813477, 0.35637718439102173, -7.304955959320068, -6.909719944000244, 7.201622009277344, -1.4666839838027954, 1.780419945716858, 
380, 3206134771, -133.20330810546875, -3.0528664588928223, 21.97056770324707, 0.3681949973106384, -7.376239776611328, -6.927534103393555, 6.654475212097168, -1.7045632600784302, 1.716153621673584, 
381, 3206143104, -133.15904235839844, -3.031240224838257, 21.963178634643555, 0.4291401505470276, -7.363305568695068, -6.986162185668945, 6.914127826690674, -2.1644668579101562, 1.8804947137832642, 
382, 3206151437, -133.11386108398438, -3.006875514984131, 21.959320068359375, 0.3801375925540924, -7.272437572479248, -6.991761207580566, 7.100701808929443, -2.615457057952881, 1.7496575117111206, 
383, 3206159770, -133.07179260253906, -2.979440212249756, 21.95384979248047, 0.3433760106563568, -7.113387107849121, -6.960114002227783, 6.662390232086182, -2.806103467941284, 2.2332794666290283, 
384, 3206168103, -133.0434112548828, -2.9511568546295166, 21.946462631225586, 0.25673267245292664, -7.167253494262695, -6.982142925262451, 5.064318656921387, -2.6259331703186035, 2.3827130794525146, 
385, 3206176436, -133.0259246826172, -2.9234070777893066, 21.9360294342041, 0.19985619187355042, -7.374289035797119, -6.9696784019470215, 3.6843769550323486, -2.393662929534912, 2.6693875789642334, 
386, 3206184769, -133.00999450683594, -2.899010419845581, 21.925310134887695, 0.1918940395116806, -7.5611891746521, -6.979126930236816, 3.5513498783111572, -2.010538339614868, 2.317178964614868, 
387, 3206193102, -132.99156188964844, -2.878739356994629, 21.91394805908203, 0.2654435336589813, -7.554295539855957, -6.9902753829956055, 3.794006109237671, -1.6973402500152588, 2.0886616706848145, 
388, 3206201435, -132.9699249267578, -2.854130506515503, 21.895618438720703, 0.3557486832141876, -7.386498928070068, -7.041236400604248, 4.189643383026123, -1.3589760065078735, 2.956650733947754, 
389, 3206209768, -132.95849609375, -2.8223657608032227, 21.8703556060791, 0.4256032109260559, -7.328815937042236, -6.966928005218506, 2.871675491333008, -1.4167745113372803, 4.2349162101745605, 
390, 3206218101, -132.95664978027344, -2.778886318206787, 21.847517013549805, 0.4892210066318512, -7.4972710609436035, -7.018754005432129, 1.7907166481018066, -2.5038938522338867, 4.980303764343262, 
391, 3206226434, -132.9489288330078, -2.7310640811920166, 21.830116271972656, 0.4711154103279114, -7.722356796264648, -7.1023125648498535, 2.477306365966797, -3.418334722518921, 5.00320291519165, 
392, 3206234767, -132.92845153808594, -2.6811413764953613, 21.81996726989746, 0.4583134353160858, -7.594141483306885, -7.156810283660889, 4.103323936462402, -4.140784740447998, 4.5131516456604, 
393, 3206243100, -132.90843200683594, -2.630042791366577, 21.814950942993164, 0.4593948721885681, -7.524935245513916, -7.11255407333374, 4.025007724761963, -4.771111965179443, 4.282380104064941, 
394, 3206251433, -132.8909912109375, -2.5754916667938232, 21.81199836730957, 0.4321887195110321, -7.5930705070495605, -7.176469802856445, 3.778676748275757, -5.150101661682129, 4.333096981048584, 
395, 3206259766, -132.86663818359375, -2.525019407272339, 21.80893898010254, 0.3414490222930908, -7.604076385498047, -7.140994548797607, 4.557964324951172, -4.887017250061035, 4.0699357986450195, 
396, 3206268099, -132.838623046875, -2.47712779045105, 21.803516387939453, 0.2582559585571289, -7.477916717529297, -7.132098197937012, 5.036912441253662, -4.385067939758301, 3.952200174331665, 
397, 3206276432, -132.8126220703125, -2.4338443279266357, 21.79107666015625, 0.2246350646018982, -7.482255458831787, -7.1361260414123535, 4.705513954162598, -3.472047805786133, 4.204909324645996, 
398, 3206284765, -132.7816619873047, -2.393390417098999, 21.766992568969727, 0.20249511301517487, -7.447851657867432, -7.0891032218933105, 5.298227787017822, -2.1317319869995117, 4.821470737457275, 
399, 3206293098, -132.75770568847656, -2.351757287979126, 21.734031677246094, 0.25835469365119934, -7.383636474609375, -6.926033020019531, 4.362668037414551, -1.5259040594100952, 5.733644008636475, 
400, 3206301431, -132.7394561767578, -2.29844331741333, 21.70409393310547, 0.2779783010482788, -7.5685038566589355, -6.796934604644775, 3.74813175201416, -2.660076856613159, 6.429711818695068, 
401, 3206309764, -132.70704650878906, -2.2391936779022217, 21.68366241455078, 0.277059942483902, -7.483628749847412, -6.81798791885376, 5.441488265991211, -4.059613227844238, 6.268008708953857, 
402, 3206318097, -132.67909240722656, -2.1704330444335938, 21.672168731689453, 0.25814783573150635, -7.367560863494873, -6.8072614669799805, 5.007429599761963, -5.534736156463623, 6.295210838317871, 
403, 3206326430, -132.65338134765625, -2.104121685028076, 21.666757583618164, 0.260050892829895, -7.3527984619140625, -6.781005382537842, 4.713160037994385, -5.950699329376221, 5.672644138336182, 
404, 3206334763, -132.62762451171875, -2.039283514022827, 21.663423538208008, 0.1947498321533203, -7.3718180656433105, -6.8043694496154785, 4.778964042663574, -5.930131435394287, 5.28914737701416, 
405, 3206343096, -132.60171508789062, -1.982930064201355, 21.658981323242188, 0.19321155548095703, -7.332101821899414, -6.819207191467285, 4.741566181182861, -5.221717834472656, 4.718641757965088, 
406, 3206351429, -132.5816650390625, -1.9320930242538452, 21.648540496826172, 0.21725928783416748, -7.2582783699035645, -6.802159309387207, 4.069769382476807, -4.159329891204834, 4.634562969207764, 
407, 3206359762, -132.56842041015625, -1.89156174659729, 21.633127212524414, 0.24054057896137238, -7.23872184753418, -6.796173572540283, 3.176037311553955, -2.9650144577026367, 4.213336944580078, 
408, 3206368095, -132.5566864013672, -1.8574212789535522, 21.614830017089844, 0.27873238921165466, -7.234127044677734, -6.743149280548096, 3.039461851119995, -2.1070396900177, 3.797105312347412, 
409, 3206376428, -132.5438995361328, -1.8269073963165283, 21.596494674682617, 0.33959388732910156, -7.169813632965088, -6.738606929779053, 3.114178419113159, -1.8895748853683472, 3.5667567253112793, 
410, 3206384761, -132.52781677246094, -1.7967290878295898, 21.57354164123535, 0.3376058340072632, -7.032832145690918, -6.76267671585083, 3.5482890605926514, -1.3737812042236328, 3.825153112411499, 
411, 3206393094, -132.5087890625, -1.7748252153396606, 21.546451568603516, 0.33592087030410767, -7.091666221618652, -6.713661193847656, 3.8334004878997803, -0.4163721799850464, 3.5152206420898438, 
412, 3206401427, -132.49591064453125, -1.7544488906860352, 21.523117065429688, 0.282815545797348, -7.165392875671387, -6.539586544036865, 3.161642074584961, -0.5408318042755127, 2.9903595447540283, 
413, 3206409760, -132.48074340820312, -1.7372186183929443, 21.505868911743164, 0.2962137460708618, -7.098789215087891, -6.460299491882324, 3.4094855785369873, -0.9060907959938049, 2.3027966022491455, 
414, 3206418093, -132.47772216796875, -1.7247931957244873, 21.496593475341797, 0.21953076124191284, -7.143189907073975, -6.507805824279785, 2.032656192779541, -1.1397310495376587, 1.1485295295715332, 
415, 3206426426, -132.48574829101562, -1.7208473682403564, 21.489675521850586, 0.19687484204769135, -7.201940059661865, -6.539987564086914, 0.6615900993347168, -0.7427487969398499, 0.2899531424045563, 
416, 3206434759, -132.49755859375, -1.7241888046264648, 21.481266021728516, 0.21902720630168915, -7.280163764953613, -6.629641056060791, 0.2578584849834442, 0.06014223024249077, -0.3160668611526489, 
417, 3206443092, -132.51222229003906, -1.7345054149627686, 21.47054672241211, 0.23637999594211578, -7.292044639587402, -6.691949367523193, -0.14676955342292786, 0.7499975562095642, -0.6625378131866455, 
418, 3206451425, -132.5265655517578, -1.7446669340133667, 21.45542335510254, 0.26443344354629517, -7.168622016906738, -6.7418904304504395, -0.07387145608663559, 1.2071861028671265, -0.37501803040504456, 
419, 3206459758, -132.54934692382812, -1.7578016519546509, 21.43608856201172, 0.24880154430866241, -7.190003871917725, -6.738272666931152, -1.151731252670288, 1.7403590679168701, -0.21255971491336823, 
420, 3206468091, -132.58692932128906, -1.7683197259902954, 21.421436309814453, 0.2048553079366684, -7.337558269500732, -6.787193775177002, -2.860508441925049, 1.1929317712783813, -0.4439075291156769, 
421, 3206476424, -132.6295166015625, -1.7768806219100952, 21.413593292236328, 0.14405564963817596, -7.35575532913208, -6.746487140655518, -3.4895172119140625, 0.35396310687065125, -0.7364733219146729, 
422, 3206484757, -132.67379760742188, -1.779586672782898, 21.409818649291992, 0.07023315131664276, -7.36976432800293, -6.925323963165283, -3.622403144836426, -0.4019513428211212, -0.6356300115585327, 
423, 3206493090, -132.7240447998047, -1.781409502029419, 21.40951156616211, 0.09234350919723511, -7.340444087982178, -6.858285427093506, -4.380943775177002, -0.8599595427513123, -0.7548643946647644, 
424, 3206501423, -132.781982421875, -1.7784919738769531, 21.41665267944336, 0.13624706864356995, -7.347238063812256, -6.874258995056152, -5.221038818359375, -1.8202883005142212, -1.0260677337646484, 
425, 3206509756, -132.84259033203125, -1.7731226682662964, 21.422128677368164, 0.10908327251672745, -7.647776126861572, -7.0123419761657715, -5.603933334350586, -1.9555442333221436, -0.5927646160125732, 
426, 3206518089, -132.90142822265625, -1.7643471956253052, 21.426456451416016, 0.13069801032543182, -7.774830341339111, -7.126636028289795, -5.340747356414795, -2.047550678253174, -0.28313976526260376, 
427, 3206526422, -132.96432495117188, -1.7496845722198486, 21.436534881591797, 0.2990901470184326, -7.56967306137085, -7.153301239013672, -5.858526229858398, -3.1186225414276123, -0.15367260575294495, 
428, 3206534755, -133.04124450683594, -1.720762848854065, 21.443416595458984, 0.3545985519886017, -7.597247123718262, -7.360494613647461, -7.502959251403809, -3.9239346981048584, 1.271541714668274, 
429, 3206543088, -133.12588500976562, -1.678623914718628, 21.447093963623047, 0.23571757972240448, -7.739098072052002, -7.425287246704102, -8.49389934539795, -4.811007499694824, 2.77315092086792, 
430, 3206551421, -133.21771240234375, -1.6211025714874268, 21.45823097229004, 0.09936676174402237, -7.821024417877197, -7.458850860595703, -9.277361869812012, -6.649801254272461, 3.419321298599243, 
431, 3206559754, -133.32266235351562, -1.5478110313415527, 21.477338790893555, 0.041894517838954926, -7.93599271774292, -7.5645036697387695, -10.878839492797852, -8.731291770935059, 4.215437412261963, 
432, 3206568087, -133.417724609375, -1.4604474306106567, 21.49938201904297, -0.06840962916612625, -8.159095764160156, -7.792006969451904, -9.635117530822754, -10.074247360229492, 5.101896286010742, 
433, 3206576420, -133.5025177001953, -1.362741470336914, 21.515979766845703, -0.15253712236881256, -8.233743667602539, -7.812008857727051, -8.476048469543457, -10.545576095581055, 6.523538112640381, 
434, 3206584753, -133.58311462402344, -1.246251106262207, 21.52590560913086, -0.27393150329589844, -8.331795692443848, -7.720405101776123, -7.940324783325195, -11.444018363952637, 8.608534812927246, 
435, 3206593086, -133.64849853515625, -1.1086070537567139, 21.532625198364258, -0.29966503381729126, -8.436301231384277, -7.726007461547852, -6.178885459899902, -13.012457847595215, 10.784826278686523, 
436, 3206601419, -133.69493103027344, -0.9506988525390625, 21.5423526763916, -0.30203014612197876, -8.346327781677246, -7.614745616912842, -3.846478223800659, -14.879379272460938, 12.193968772888184, 
437, 3206609752, -133.73117065429688, -0.782715380191803, 21.549640655517578, -0.42069199681282043, -8.42430591583252, -7.7092719078063965, -2.6864089965820312, -15.597346305847168, 13.350321769714355, 
438, 3206618085, -133.7487335205078, -0.6077176332473755, 21.54116439819336, -0.45163804292678833, -8.278497695922852, -7.802296161651611, -0.41724324226379395, -14.732686042785645, 15.167372703552246, 
439, 3206626418, -133.76170349121094, -0.4231468737125397, 21.50754165649414, -0.34294378757476807, -7.885201930999756, -7.723639965057373, 0.057772934436798096, -13.437594413757324, 18.172168731689453, 
440, 3206634751, -133.7853546142578, -0.21768975257873535, 21.450130462646484, -0.32008931040763855, -7.8789520263671875, -7.48443078994751, -1.176680088043213, -13.028830528259277, 21.858457565307617, 
441, 3206643084, -133.80316162109375, 0.009281373582780361, 21.38875389099121, -0.3781062066555023, -8.338183403015137, -7.480041027069092, -0.5011044144630432, -14.56855297088623, 24.14063835144043, 
442, 3206651417, -133.7862548828125, 0.2477334439754486, 21.336875915527344, -0.3741987943649292, -8.5259370803833, -7.531562805175781, 3.743753433227539, -16.253690719604492, 24.252368927001953, 
443, 3206659750, -133.73866271972656, 0.4886060655117035, 21.298206329345703, -0.291813462972641, -8.040121078491211, -7.539416790008545, 7.393631935119629, -17.67763900756836, 23.467344284057617, 
444, 3206668083, -133.69525146484375, 0.7355939745903015, 21.26386833190918, -0.30611056089401245, -7.805427551269531, -7.627826690673828, 6.948698997497559, -18.450767517089844, 23.55531883239746, 
445, 3206676416, -133.64967346191406, 0.9804823994636536, 21.222686767578125, -0.28975436091423035, -7.672483444213867, -7.72458028793335, 7.196671485900879, -17.75383186340332, 24.050622940063477, 
446, 3206684749, -133.6162872314453, 1.2184983491897583, 21.17265510559082, -0.378121018409729, -7.671230792999268, -7.712852954864502, 5.819814682006836, -16.308530807495117, 24.100120544433594, 
447, 3206693082, -133.5870819091797, 1.450879693031311, 21.114665985107422, -0.48352667689323425, -7.5394368171691895, -7.561469078063965, 5.315751552581787, -15.228506088256836, 24.375728607177734, 
448, 3206701415, -133.5700225830078, 1.6843409538269043, 21.04521942138672, -0.6674633026123047, -7.62641716003418, -7.353792667388916, 3.9756906032562256, -14.2220458984375, 25.322046279907227, 
449, 3206709748, -133.5422821044922, 1.916518211364746, 20.969911575317383, -0.898148238658905, -7.882421016693115, -7.2341084480285645, 5.263294219970703, -13.686838150024414, 25.798728942871094, 
450, 3206718081, -133.49801635742188, 2.1500182151794434, 20.886220932006836, -0.9643418788909912, -7.737401962280273, -7.155990123748779, 7.368837833404541, -12.961030960083008, 26.51359748840332, 
451, 3206726414, -133.45126342773438, 2.387249708175659, 20.79254913330078, -0.9258255362510681, -7.402810096740723, -7.0905866622924805, 7.70645809173584, -12.472336769104004, 27.76869773864746, 
452, 3206734747, -133.42662048339844, 2.6323745250701904, 20.689971923828125, -0.9358126521110535, -7.237173557281494, -7.018153190612793, 5.198707580566406, -12.237390518188477, 29.09747314453125, 
453, 3206743080, -133.42140197753906, 2.887590169906616, 20.585216522216797, -1.00104558467865, -7.524399280548096, -6.975133419036865, 2.8804900646209717, -12.968244552612305, 30.25621795654297, 
454, 3206751413, -133.4142303466797, 3.156775712966919, 20.49622917175293, -1.0797646045684814, -7.609913349151611, -6.90165901184082, 3.125746726989746, -15.396758079528809, 30.07210350036621, 
455, 3206759746, -133.4163055419922, 3.4436070919036865, 20.4312744140625, -1.1022381782531738, -7.5511298179626465, -6.733913898468018, 1.8480180501937866, -19.038225173950195, 29.734060287475586, 
456, 3206768079, -133.42149353027344, 3.744183301925659, 20.38585090637207, -1.212404489517212, -7.873785018920898, -6.909204006195068, 1.4175701141357422, -21.778644561767578, 29.216169357299805, 
457, 3206776412, -133.41050720214844, 4.055192947387695, 20.35051918029785, -1.1576142311096191, -7.936837673187256, -7.0054192543029785, 3.257366418838501, -23.61521339416504, 29.399160385131836, 
458, 3206784745, -133.3905487060547, 4.381499767303467, 20.324283599853516, -1.1146538257598877, -7.607466697692871, -6.920133590698242, 4.325161457061768, -25.559864044189453, 29.884233474731445, 
459, 3206793078, -133.37611389160156, 4.724071025848389, 20.296480178833008, -1.0975687503814697, -7.540923595428467, -7.007891654968262, 3.6463584899902344, -26.855335235595703, 31.54442596435547, 
460, 3206801411, -133.3618927001953, 5.084864139556885, 20.25957679748535, -1.094754934310913, -7.692166328430176, -7.161208152770996, 3.780142307281494, -27.460966110229492, 33.776588439941406, 
461, 3206809744, -133.347900390625, 5.4493560791015625, 20.220556259155273, -1.0537678003311157, -7.482831954956055, -7.099905014038086, 3.7603044509887695, -27.67204475402832, 34.38911437988281, 
462, 3206818077, -133.3499755859375, 5.82125186920166, 20.176725387573242, -1.0894769430160522, -7.552071571350098, -7.190559387207031, 1.9610165357589722, -27.765573501586914, 35.31962203979492, 
463, 3206826410, -133.36073303222656, 6.19846248626709, 20.136146545410156, -1.0948864221572876, -7.658718585968018, -7.068581581115723, 0.8714618682861328, -28.589353561401367, 35.62123107910156, 
464, 3206834743, -133.3732452392578, 6.590966701507568, 20.104169845581055, -1.085670828819275, -7.44538688659668, -7.0254411697387695, 0.6189691424369812, -30.508621215820312, 36.132484436035156, 
465, 3206843076, -133.39468383789062, 6.998013496398926, 20.08502960205078, -1.159234881401062, -7.595623016357422, -6.9747209548950195, -0.6524343490600586, -32.93076705932617, 36.44928741455078, 
466, 3206851409, -133.41357421875, 7.414689540863037, 20.082412719726562, -1.193146824836731, -7.447702884674072, -6.94129753112793, -0.5351977944374084, -35.07017517089844, 35.81631088256836, 
467, 3206859742, -133.4414520263672, 7.8363471031188965, 20.094776153564453, -1.20718514919281, -7.460349082946777, -6.924919128417969, -1.890731930732727, -36.8876953125, 35.12022018432617, 
468, 3206868075, -133.4669647216797, 8.262720108032227, 20.118793487548828, -1.2872079610824585, -7.326075553894043, -6.878731727600098, -1.7753137350082397, -38.20331954956055, 34.45521926879883, 
469, 3206876408, -133.4910888671875, 8.688204765319824, 20.14469337463379, -1.353061318397522, -7.188692092895508, -6.948387145996094, -1.6997261047363281, -38.39942932128906, 34.31731414794922, 
470, 3206884741, -133.51632690429688, 9.113548278808594, 20.16047477722168, -1.4399163722991943, -7.263369560241699, -6.980413436889648, -1.630926251411438, -37.43543243408203, 35.01136016845703, 
471, 3206893074, -133.526123046875, 9.530871391296387, 20.16461753845215, -1.3327789306640625, -6.811551570892334, -6.999999046325684, 0.3936788737773895, -35.87665939331055, 35.3592414855957, 
472, 3206901407, -133.5669708251953, 9.943120002746582, 20.147716522216797, -1.3460968732833862, -6.571667194366455, -6.816823482513428, -2.867481231689453, -33.577938079833984, 36.511451721191406, 
473, 3206909740, -133.63467407226562, 10.347638130187988, 20.11779022216797, -1.5783023834228516, -6.639798641204834, -6.7960734367370605, -5.840787887573242, -31.95230484008789, 36.97453308105469, 
474, 3206918073, -133.73324584960938, 10.743399620056152, 20.07989501953125, -1.6696131229400635, -6.949423789978027, -6.6097412109375, -9.303787231445312, -30.51498031616211, 36.70857620239258, 
475, 3206926406, -133.8254852294922, 11.135051727294922, 20.060518264770508, -1.7723619937896729, -7.047059535980225, -6.453129768371582, -8.977205276489258, -31.905170440673828, 34.89595413208008, 
476, 3206934739, -133.89718627929688, 11.523613929748535, 20.055313110351562, -1.7333052158355713, -6.886436462402344, -6.487237453460693, -6.785365104675293, -32.8131103515625, 33.3246955871582, 
477, 3206943072, -133.95269775390625, 11.898584365844727, 20.0556583404541, -1.7791125774383545, -6.813698768615723, -6.5834431648254395, -5.019438743591309, -32.279258728027344, 31.76506233215332, 
478, 3206951405, -134.00962829589844, 12.256854057312012, 20.042943954467773, -1.7177037000656128, -6.63737678527832, -6.562670707702637, -4.818902969360352, -29.728452682495117, 31.254638671875, 
479, 3206959738, -134.07542419433594, 12.589665412902832, 20.025466918945312, -1.701770305633545, -6.687274932861328, -6.492589950561523, -5.796061992645264, -27.328107833862305, 29.51450538635254, 
480, 3206968071, -134.13475036621094, 12.895674705505371, 20.006338119506836, -1.8086307048797607, -6.827645301818848, -6.4043779373168945, -4.9221272468566895, -24.899587631225586, 27.209190368652344, 
481, 3206976404, -134.17520141601562, 13.171363830566406, 19.99553680419922, -1.8341902494430542, -6.920292854309082, -6.4409589767456055, -2.9115731716156006, -23.175168991088867, 23.99688720703125, 
482, 3206984737, -134.19615173339844, 13.420415878295898, 19.99055290222168, -1.8060978651046753, -6.534425735473633, -6.370911598205566, -0.6821203827857971, -21.364269256591797, 21.12148666381836, 
483, 3206993070, -134.23239135742188, 13.64344310760498, 19.987096786499023, -1.8422902822494507, -6.3086419105529785, -6.2712249755859375, -2.599821090698242, -19.410045623779297, 18.84649085998535, 
484, 3207001403, -134.27468872070312, 13.855619430541992, 19.982006072998047, -2.0058093070983887, -6.517727375030518, -6.257079601287842, -3.239293336868286, -18.29499053955078, 17.93681526184082, 
485, 3207009736, -134.3009490966797, 14.043806076049805, 19.98531723022461, -2.062364101409912, -6.555564880371094, -6.276799201965332, -1.5956523418426514, -17.07941436767578, 15.279898643493652, 
486, 3207018069, -134.3157196044922, 14.213335990905762, 19.98939323425293, -2.0823328495025635, -6.021141052246094, -6.132381439208984, -0.2014688402414322, -15.506107330322266, 13.513742446899414, 
487, 3207026402, -134.35665893554688, 14.366819381713867, 19.985191345214844, -2.248490333557129, -6.029837131500244, -5.978663921356201, -3.1380391120910645, -13.558244705200195, 12.89671802520752, 
488, 3207034735, -134.40037536621094, 14.511662483215332, 19.98438262939453, -2.422539472579956, -6.412041187286377, -5.892491340637207, -3.5313332080841064, -13.046026229858398, 11.776185989379883, 
489, 3207043068, -134.41233825683594, 14.650588989257812, 20.0037899017334, -2.4662351608276367, -6.384983539581299, -5.773629665374756, -0.3705611824989319, -14.31100845336914, 9.714495658874512, 
490, 3207051401, -134.40684509277344, 14.782771110534668, 20.044878005981445, -2.61517596244812, -6.224035263061523, -5.869479656219482, 1.0970580577850342, -15.463611602783203, 7.282077789306641, 
491, 3207059734, -134.3898162841797, 14.90219783782959, 20.104717254638672, -2.7299718856811523, -5.961230278015137, -5.892384052276611, 1.8516534566879272, -16.021156311035156, 4.766323089599609, 
492, 3207068067, -134.38905334472656, 15.01924991607666, 20.177391052246094, -2.916968584060669, -5.769314289093018, -5.983468055725098, -0.46958592534065247, -16.802480697631836, 3.4298112392425537, 
493, 3207076400, -134.40919494628906, 15.126460075378418, 20.26359748840332, -3.0403475761413574, -5.546395301818848, -6.154044151306152, -3.45635986328125, -17.17268180847168, 1.5867893695831299, 
494, 3207084733, -134.4627227783203, 15.225902557373047, 20.35287857055664, -3.0371038913726807, -5.597782135009766, -6.21659517288208, -7.540805339813232, -16.69087791442871, 0.5668046474456787, 
495, 3207093066, -134.5529327392578, 15.326285362243652, 20.448467254638672, -3.0724833011627197, -5.575864315032959, -6.303465843200684, -12.195812225341797, -17.370555877685547, 0.21545419096946716, 
496, 3207101399, -134.6678924560547, 15.431940078735352, 20.535140991210938, -3.1418137550354004, -6.0448408126831055, -6.469163417816162, -14.862037658691406, -16.992708206176758, 1.2649083137512207, 
497, 3207109732, -134.76724243164062, 15.538414001464844, 20.623329162597656, -3.208829641342163, -6.66117525100708, -6.346705913543701, -13.098881721496582, -17.272235870361328, 1.285732626914978, 
498, 3207118065, -134.8319549560547, 15.654498100280762, 20.728187561035156, -3.1683952808380127, -7.095673084259033, -6.286151885986328, -9.454896926879883, -19.363513946533203, 0.6212735772132874, 
499, 3207126398, -134.8380584716797, 15.783529281616211, 20.86150550842285, -3.2250258922576904, -7.417346477508545, -6.2545166015625, -3.415557622909546, -22.873523712158203, -0.4968652129173279, 
500, 3207134731, -134.78143310546875, 15.925908088684082, 21.01988983154297, -3.1974105834960938, -7.401670932769775, -6.386054515838623, 3.290726900100708, -25.956815719604492, -1.4862157106399536, 
501, 3207143064, -134.6750030517578, 16.07310676574707, 21.192411422729492, -3.082820177078247, -7.086328029632568, -6.615771770477295, 8.717670440673828, -27.60407257080078, -2.072807788848877, 
502, 3207151397, -134.5499267578125, 16.222932815551758, 21.355730056762695, -2.891162395477295, -6.636931419372559, -6.719871520996094, 11.244465827941895, -26.96837615966797, -1.144342303276062, 
503, 3207159730, -134.43374633789062, 16.37305450439453, 21.50733184814453, -2.87709641456604, -6.655135154724121, -6.725069046020508, 10.487448692321777, -26.11602020263672, -0.0028559889178723097, 
504, 3207168063, -134.32180786132812, 16.521684646606445, 21.649999618530273, -2.8933303356170654, -6.874563694000244, -6.841587066650391, 10.270943641662598, -25.150402069091797, 0.5405247807502747, 
505, 3207176396, -134.21725463867188, 16.659360885620117, 21.775714874267578, -2.8629872798919678, -6.621771335601807, -6.877895355224609, 9.88724136352539, -22.922346115112305, 1.1183565855026245, 
506, 3207184729, -134.14938354492188, 16.785520553588867, 21.876232147216797, -2.839460849761963, -6.373410701751709, -6.886064052581787, 6.35699462890625, -19.776695251464844, 2.0794410705566406, 
507, 3207193062, -134.1286163330078, 16.89507484436035, 21.951536178588867, -2.8152785301208496, -6.535046100616455, -6.824097633361816, 1.5226128101348877, -16.39896583557129, 2.7932071685791016, 
508, 3207201395, -134.1285858154297, 16.988155364990234, 21.99966812133789, -2.8339078426361084, -6.65645170211792, -7.049581527709961, 0.008260590024292469, -12.685474395751953, 3.4455628395080566, 
509, 3207209728, -134.1472625732422, 17.052101135253906, 22.02214241027832, -2.863670825958252, -6.575770854949951, -6.913097381591797, -1.380082130432129, -8.230095863342285, 3.091381788253784, 
510, 3207218061, -134.18875122070312, 17.09847068786621, 22.029924392700195, -2.7625627517700195, -6.501541614532471, -6.7880659103393555, -3.5660524368286133, -5.461531639099121, 2.6439526081085205, 
511, 3207226394, -134.23583984375, 17.131303787231445, 22.03569221496582, -2.7895379066467285, -6.9238739013671875, -6.835093021392822, -4.204897403717041, -4.257406711578369, 1.7438174486160278, 
512, 3207234727, -134.26783752441406, 17.15298080444336, 22.049087524414062, -2.799968719482422, -6.703981399536133, -6.741528511047363, -2.623243570327759, -3.8606419563293457, 0.06544437259435654, 
513, 3207243060, -134.30506896972656, 17.162527084350586, 22.067790985107422, -2.726984977722168, -6.423471450805664, -6.895934581756592, -3.480565071105957, -3.3702187538146973, -1.2959010601043701, 
514, 3207251393, -134.3402862548828, 17.160778045654297, 22.080970764160156, -2.5967769622802734, -6.384670257568359, -7.168798923492432, -3.00471568107605, -1.8837089538574219, -1.9325809478759766, 
515, 3207259726, -134.38064575195312, 17.147035598754883, 22.075035095214844, -2.593343734741211, -6.334177494049072, -7.084055423736572, -2.982841730117798, 0.605315625667572, -1.320631742477417, 
516, 3207268059, -134.4461669921875, 17.120851516723633, 22.042146682739258, -2.795724868774414, -6.465857028961182, -6.955943584442139, -5.006147861480713, 3.943272829055786, -0.32801586389541626, 
517, 3207276392, -134.52117919921875, 17.08546257019043, 21.994400024414062, -3.0197131633758545, -6.924439907073975, -6.846671104431152, -5.666535377502441, 5.848563194274902, 0.18735533952713013, 
518, 3207284725, -134.58328247070312, 17.048139572143555, 21.94961929321289, -3.1370227336883545, -7.119952201843262, -6.681349754333496, -4.178936958312988, 5.85109806060791, -0.3080880343914032, 
519, 3207293058, -134.61085510253906, 17.00537109375, 21.925928115844727, -3.2273106575012207, -6.957369327545166, -6.668694496154785, -0.8262895345687866, 4.504992485046387, -2.3639631271362305, 
520, 3207301391, -134.6322784423828, 16.96714973449707, 21.916183471679688, -3.2537219524383545, -6.7605180740356445, -6.63547945022583, -0.5324944257736206, 3.0657551288604736, -3.1998841762542725, 
521, 3207309724, -134.6448211669922, 16.934228897094727, 21.92314910888672, -3.360600233078003, -6.888879776000977, -6.609247207641602, -0.09864041209220886, 1.1730421781539917, -3.9918758869171143, 
522, 3207318057, -134.63999938964844, 16.90872573852539, 21.945985794067383, -3.3620991706848145, -6.741056442260742, -6.661984443664551, 1.4775059223175049, -0.6666232943534851, -4.741386890411377, 
523, 3207326390, -134.64517211914062, 16.88538932800293, 21.967931747436523, -3.3786022663116455, -6.980223655700684, -6.7332329750061035, 0.26440295577049255, -0.858794093132019, -4.38210916519165, 
524, 3207334723, -134.63807678222656, 16.862340927124023, 21.985214233398438, -3.3112668991088867, -6.963684558868408, -6.8563127517700195, 1.9405215978622437, -0.4206882119178772, -4.088775157928467, 
525, 3207343056, -134.6332550048828, 16.840803146362305, 21.992082595825195, -3.166110038757324, -6.636964797973633, -6.897310733795166, 1.9903799295425415, 0.22012875974178314, -3.0114529132843018, 
526, 3207351389, -134.63995361328125, 16.823705673217773, 21.994070053100586, -3.1319053173065186, -6.718175411224365, -6.892337799072266, 0.8196042776107788, 0.3295271396636963, -2.346071720123291, 
527, 3207359722, -134.66171264648438, 16.810823440551758, 21.99593162536621, -3.127318859100342, -6.771782398223877, -6.844109535217285, -1.0275918245315552, -0.09881971031427383, -1.8683534860610962, 
528, 3207368055, -134.69818115234375, 16.801612854003906, 22.0040283203125, -3.1815569400787354, -6.891989707946777, -6.871169567108154, -2.960672616958618, -0.8317197561264038, -2.1642746925354004, 
529, 3207376388, -134.7280731201172, 16.795795440673828, 22.0235652923584, -3.247209072113037, -6.996311664581299, -6.864767074584961, -2.616698980331421, -2.137789726257324, -2.6929526329040527, 
530, 3207384721, -134.74227905273438, 16.79245948791504, 22.057416915893555, -3.2621707916259766, -7.014501094818115, -6.877161502838135, -1.1818792819976807, -3.4274535179138184, -3.7483742237091064, 
531, 3207393054, -134.74331665039062, 16.78897476196289, 22.101911544799805, -3.267338514328003, -7.086732864379883, -6.975962162017822, -0.018006810918450356, -4.371505260467529, -4.514944553375244, 
532, 3207401387, -134.72137451171875, 16.787477493286133, 22.16270637512207, -3.2138407230377197, -7.111889362335205, -6.952474594116211, 2.221970796585083, -5.781081676483154, -5.768146514892578, 
533, 3207409720, -134.68032836914062, 16.792802810668945, 22.238386154174805, -3.2274467945098877, -7.351454257965088, -7.025763034820557, 3.9526479244232178, -7.665085792541504, -6.280303478240967, 
534, 3207418053, -134.60157775878906, 16.812301635742188, 22.31766128540039, -3.1824703216552734, -7.617995262145996, -7.168988227844238, 8.391825675964355, -9.069950103759766, -5.461109161376953, 
535, 3207426386, -134.488525390625, 16.83747100830078, 22.385217666625977, -2.9747254848480225, -6.5703816413879395, -7.166193962097168, 12.871950149536133, -8.683830261230469, -3.9097445011138916, 
536, 3207434719, -134.444091796875, 16.876399993896484, 22.412254333496094, -3.0827560424804688, -6.5630974769592285, -7.250959873199463, 6.082126617431641, -6.432823181152344, 0.43172797560691833, 
537, 3207443052, -134.41323852539062, 16.91562271118164, 22.40515899658203, -3.2250373363494873, -7.041168689727783, -7.114142894744873, 5.601437091827393, -3.746978759765625, 3.313624143600464, 
538, 3207451385, -134.37974548339844, 16.9637451171875, 22.38020133972168, -3.092397689819336, -7.438196659088135, -7.143885612487793, 6.5870842933654785, -2.939272165298462, 5.406191825866699, 
539, 3207459718, -134.33709716796875, 17.010395050048828, 22.351890563964844, -2.937594413757324, -7.315558910369873, -7.193886756896973, 7.760242462158203, -2.6253695487976074, 5.654471397399902, 
540, 3207468051, -134.30722045898438, 17.05529022216797, 22.320423126220703, -2.989107847213745, -7.13097620010376, -7.118953227996826, 6.385142803192139, -2.1291449069976807, 5.650423526763916, 
541, 3207476384, -134.29165649414062, 17.102214813232422, 22.283626556396484, -3.0294265747070312, -7.314301013946533, -7.165230751037598, 4.814604759216309, -1.9466689825057983, 6.359809398651123, 
542, 3207484717, -134.28067016601562, 17.140451431274414, 22.252704620361328, -3.1158339977264404, -8.007987976074219, -6.818386554718018, 4.107089042663574, -1.6133509874343872, 5.036219596862793, 
543, 3207493050, -134.22276306152344, 17.185773849487305, 22.227367401123047, -3.0403056144714355, -7.28269100189209, -7.616863250732422, 9.495759963989258, -2.749009132385254, 5.304553985595703, 
544, 3207501383, -134.2386932373047, 17.209041595458984, 22.190406799316406, -2.6027262210845947, -7.098904609680176, -7.365008354187012, 1.0903468132019043, 0.13895723223686218, 4.231446266174316, 
545, 3207509716, -134.2550506591797, 17.218660354614258, 22.14162826538086, -2.9245479106903076, -7.867275714874268, -7.510348796844482, 1.4208984375, 2.1655044555664062, 4.111161231994629, 
546, 3207518049, -134.26100158691406, 17.21792984008789, 22.093486785888672, -2.7493338584899902, -7.745294094085693, -7.500622749328613, 2.690006971359253, 3.0619513988494873, 3.065460205078125, 
547, 3207526382, -134.27467346191406, 17.19659423828125, 22.0455322265625, -2.5985281467437744, -7.882265567779541, -7.604710102081299, 1.7122092247009277, 4.689274787902832, 1.386267900466919, 
548, 3207534715, -134.27943420410156, 17.154674530029297, 22.0058536529541, -2.5557188987731934, -8.044583320617676, -7.615048408508301, 2.5277280807495117, 5.815110206604004, -1.1458783149719238, 
549, 3207543048, -134.26551818847656, 17.087318420410156, 21.97340202331543, -2.574237823486328, -8.074328422546387, -7.73439359664917, 4.469454288482666, 7.272395133972168, -3.809465169906616, 
550, 3207551381, -134.23428344726562, 16.996601104736328, 21.93628692626953, -2.551255226135254, -7.909489631652832, -7.689839839935303, 6.744818687438965, 9.6885347366333, -5.541013240814209, 
551, 3207559714, -134.1871337890625, 16.888517379760742, 21.900917053222656, -2.509631872177124, -7.550689697265625, -7.58291482925415, 8.54362964630127, 10.919912338256836, -7.084270477294922, 
552, 3207568047, -134.1461944580078, 16.769620895385742, 21.874235153198242, -2.492335319519043, -7.326470851898193, -7.274092674255371, 7.534672260284424, 11.177657127380371, -8.808633804321289, 
553, 3207576380, -134.096435546875, 16.64469337463379, 21.876760482788086, -2.5765650272369385, -7.696982383728027, -7.174790859222412, 7.535300254821777, 9.1941556930542, -11.583464622497559, 
554, 3207584713, -134.01409912109375, 16.516489028930664, 21.903596878051758, -2.658442497253418, -7.318274021148682, -7.149231433868408, 10.652848243713379, 7.513259410858154, -13.90850830078125, 
555, 3207593046, -133.9397735595703, 16.382076263427734, 21.93764305114746, -2.6450955867767334, -6.724730491638184, -7.029181957244873, 9.413529396057129, 7.3452301025390625, -14.948036193847656, 
556, 3207601379, -133.88876342773438, 16.25522232055664, 21.968523025512695, -2.6820974349975586, -6.688394069671631, -6.829703330993652, 6.774967193603516, 7.027011394500732, -14.136334419250488, 
557, 3207609712, -133.85028076171875, 16.13924217224121, 21.990951538085938, -2.787529230117798, -6.810589790344238, -6.8511762619018555, 5.515577793121338, 6.747853755950928, -12.444012641906738, 
558, 3207618045, -133.82240295410156, 16.029985427856445, 22.003578186035156, -2.7232847213745117, -5.953912258148193, -6.6595001220703125, 4.622230052947998, 7.058708190917969, -11.16865348815918, 
559, 3207626378, -133.8406524658203, 15.934657096862793, 21.991268157958984, -2.8389694690704346, -6.038913249969482, -6.576528549194336, -0.13621652126312256, 7.912532806396484, -7.887622833251953, 
560, 3207634711, -133.86488342285156, 15.850600242614746, 21.97492027282715, -2.863121509552002, -6.145201683044434, -6.4048943519592285, -0.6701323986053467, 7.377668380737305, -6.6703691482543945, 
561, 3207643044, -133.90554809570312, 15.7820405960083, 21.964452743530273, -2.915996789932251, -6.063971042633057, -6.153013229370117, -2.8877358436584473, 5.538591384887695, -5.710962295532227, 
562, 3207651377, -133.95814514160156, 15.74354362487793, 21.965028762817383, -2.903730630874634, -6.263384819030762, -6.076279163360596, -4.631002902984619, 2.1858291625976562, -4.075788497924805, 
563, 3207659710, -134.00474548339844, 15.729656219482422, 21.980026245117188, -2.8739538192749023, -6.398275852203369, -6.191242218017578, -4.430648326873779, -1.1228768825531006, -3.020123243331909, 
564, 3207668043, -134.05203247070312, 15.735054969787598, 22.004737854003906, -2.737107276916504, -6.254930019378662, -6.267938137054443, -4.7769269943237305, -3.471343755722046, -2.2225472927093506, 
565, 3207676376, -134.11720275878906, 15.757041931152344, 22.02385711669922, -2.696971893310547, -6.362403869628906, -6.299236297607422, -6.791692733764648, -4.456236839294434, -0.25929296016693115, 
566, 3207684709, -134.1935577392578, 15.794325828552246, 22.029979705810547, -2.783961296081543, -6.550356388092041, -6.344032287597656, -7.6651763916015625, -4.593132495880127, 2.011178970336914, 
567, 3207693042, -134.27590942382812, 15.843863487243652, 22.02694320678711, -2.911578416824341, -6.835614204406738, -6.2512898445129395, -8.131253242492676, -4.929498672485352, 3.8850653171539307, 
568, 3207701375, -134.35560607910156, 15.907319068908691, 22.015708923339844, -3.0300347805023193, -7.159623622894287, -6.192780494689941, -7.493932723999023, -5.361828327178955, 5.6472601890563965, 
569, 3207709708, -134.41574096679688, 15.979589462280273, 22.00054931640625, -3.189547300338745, -7.1015305519104, -6.1524176597595215, -5.069031238555908, -5.850931644439697, 6.80292272567749, 
570, 3207718041, -134.46725463867188, 16.060972213745117, 21.9826602935791, -3.1879379749298096, -6.890450477600098, -6.183416366577148, -3.890930414199829, -6.329713821411133, 7.7126898765563965, 
571, 3207726374, -134.50555419921875, 16.146503448486328, 21.965421676635742, -3.1207423210144043, -6.9413933753967285, -6.1909894943237305, -2.372236728668213, -6.808853626251221, 8.097057342529297, 
572, 3207734707, -134.5216522216797, 16.235551834106445, 21.9586181640625, -3.1375865936279297, -7.138883113861084, -6.271459102630615, -0.006646895315498114, -7.89608907699585, 7.464835166931152, 
573, 3207743040, -134.50665283203125, 16.326677322387695, 21.96548080444336, -3.0533347129821777, -7.1535139083862305, -6.326638221740723, 3.2186596393585205, -9.266220092773438, 6.624533653259277, 
574, 3207751373, -134.47030639648438, 16.416257858276367, 21.98927116394043, -2.963547706604004, -7.120781898498535, -6.3814897537231445, 5.249407768249512, -10.449136734008789, 5.040369510650635, 
575, 3207759706, -134.41941833496094, 16.49966049194336, 22.029088973999023, -2.8718206882476807, -7.182432651519775, -6.434664249420166, 6.402880668640137, -11.314397811889648, 3.3195667266845703, 
576, 3207768039, -134.35179138183594, 16.577844619750977, 22.089664459228516, -2.785229444503784, -7.214523792266846, -6.5433220863342285, 7.7323102951049805, -12.503437042236328, 1.123069167137146, 
577, 3207776372, -134.2678680419922, 16.64296531677246, 22.15495491027832, -2.666140556335449, -7.0757598876953125, -6.7111029624938965, 9.481698989868164, -11.866104125976562, -0.2720232307910919, 
578, 3207784705, -134.18350219726562, 16.689193725585938, 22.22014617919922, -2.5854296684265137, -6.775990009307861, -6.839095115661621, 9.564971923828125, -10.201447486877441, -1.9579397439956665, 
579, 3207793038, -134.1211395263672, 16.715421676635742, 22.263917922973633, -2.497581720352173, -6.779635429382324, -6.905065059661865, 7.627421855926514, -6.837465286254883, -1.8659204244613647, 
580, 3207801371, -134.06578063964844, 16.719741821289062, 22.2938289642334, -2.3435750007629395, -6.509111404418945, -6.942379474639893, 7.291438102722168, -3.793109655380249, -2.7254059314727783, 
581, 3207809704, -134.03005981445312, 16.70369529724121, 22.31090545654297, -2.330349922180176, -6.790560245513916, -6.881193161010742, 5.349033355712891, -1.1056638956069946, -3.3659920692443848, 
582, 3207818037, -133.98439025878906, 16.67206573486328, 22.33047103881836, -2.2743144035339355, -6.818274021148682, -6.75424337387085, 6.49186372756958, 0.05198408663272858, -4.998003005981445, 
583, 3207826370, -133.93666076660156, 16.63201332092285, 22.35771942138672, -2.1852850914001465, -6.73231315612793, -6.704013824462891, 6.439355373382568, 0.047808971256017685, -6.254048824310303, 
584, 3207834703, -133.8779754638672, 16.579856872558594, 22.399433135986328, -2.1319944858551025, -6.783870220184326, -6.795277118682861, 7.3008131980896, -0.08496242761611938, -8.53573989868164, 
585, 3207843036, -133.81703186035156, 16.51673698425293, 22.45179557800293, -1.9485090970993042, -6.351728439331055, -6.823402404785156, 7.174688816070557, -0.1307094693183899, -10.253379821777344, 
586, 3207851369, -133.7812957763672, 16.442424774169922, 22.496110916137695, -1.9179649353027344, -6.261232852935791, -6.763992786407471, 4.467942237854004, 1.521613597869873, -10.665549278259277, 
587, 3207859702, -133.7711944580078, 16.35832977294922, 22.525001525878906, -2.115072727203369, -6.716243267059326, -6.644840240478516, 1.8794958591461182, 3.544037103652954, -10.207491874694824, 
588, 3207868035, -133.7539520263672, 16.269643783569336, 22.540390014648438, -2.237638473510742, -6.543302536010742, -6.517520904541016, 3.244401693344116, 5.104584693908691, -9.605198860168457, 
589, 3207876368, -133.75082397460938, 16.182331085205078, 22.5421142578125, -2.1611287593841553, -6.254605770111084, -6.422165393829346, 1.9653549194335938, 6.067782402038574, -8.325460433959961, 
590, 3207884701, -133.76162719726562, 16.100088119506836, 22.535846710205078, -2.215745210647583, -6.392375469207764, -6.345593452453613, 0.6059815287590027, 6.366776466369629, -7.319331645965576, 
591, 3207893034, -133.7696075439453, 16.023855209350586, 22.526386260986328, -2.345010757446289, -6.436967849731445, -6.1827192306518555, 1.0093032121658325, 6.080844402313232, -6.4709367752075195, 
592, 3207901367, -133.77919006347656, 15.956758499145508, 22.516067504882812, -2.4745373725891113, -6.360694408416748, -6.073273658752441, 0.8806688189506531, 5.447380065917969, -5.68199348449707, 
593, 3207909700, -133.79481506347656, 15.899827003479004, 22.504560470581055, -2.523137331008911, -6.558571815490723, -6.066821098327637, 0.15284015238285065, 4.651083946228027, -4.632245063781738, 
594, 3207918033, -133.79962158203125, 15.852121353149414, 22.499248504638672, -2.4699482917785645, -6.389659881591797, -6.05575704574585, 1.2902657985687256, 3.420396327972412, -4.398258209228516, 
595, 3207926366, -133.8099822998047, 15.814196586608887, 22.493247985839844, -2.450153112411499, -6.372473239898682, -6.119394779205322, 0.6045215725898743, 2.6159307956695557, -3.423611640930176, 
596, 3207934699, -133.82139587402344, 15.786235809326172, 22.4837703704834, -2.4801838397979736, -6.548851013183594, -6.096765518188477, 0.6321977376937866, 2.1297085285186768, -2.3481080532073975, 
597, 3207943032, -133.84030151367188, 15.769783020019531, 22.472618103027344, -2.499366044998169, -6.232060432434082, -6.091454982757568, -0.25623199343681335, 1.2613730430603027, -1.153165578842163, 
598, 3207951365, -133.88275146484375, 15.767255783081055, 22.460214614868164, -2.479856014251709, -6.411182403564453, -6.134961128234863, -2.99493145942688, 0.2591904103755951, 0.08982912451028824, 
599, 3207959698, -133.92929077148438, 15.769790649414062, 22.45175552368164, -2.538259506225586, -6.748147010803223, -6.123414039611816, -3.660504102706909, -0.5420740246772766, 0.27841389179229736, 
600, 3207968031, -133.97613525390625, 15.781189918518066, 22.448020935058594, -2.6058712005615234, -6.743505954742432, -6.09125280380249, -3.808093786239624, -1.622764229774475, 0.5963890552520752, 
601, 3207976364, -134.01756286621094, 15.799942016601562, 22.45408058166504, -2.6079719066619873, -6.801712512969971, -6.124444007873535, -3.5201773643493652, -3.102511405944824, 0.5131556391716003, 
