Euler_X,Euler_Y,Euler_Z,Acc_X,Acc_Y,Acc_Z,Gyr_X,Gyr_Y,Gyr_Z,time_seconds,filtered_accel_x,filtered_accel_y,filtered_accel_z,Vel_X,Vel_Y,Vel_Z,Displacement_X,Displacement_Y,Displacement_Z,Acc_Global_X,Acc_Global_Y,Acc_Global_Z,Dy_dt,Dz_dt,Dx_dt,Vel_X_Roll_Mean,Vel_Y_Roll_Mean,Vel_Z_Roll_Mean,Vel_X_Roll_Std,Vel_Y_Roll_Std,Vel_Z_Roll_Std,Vel_X_Roll_Sum,Vel_Y_Roll_Sum,Vel_Z_Roll_Sum,Vel_X_Roll_Max,Vel_Y_Roll_Max,Vel_Z_Roll_Max,Vel_X_Roll_Min,Vel_Y_Roll_Min,Vel_Z_Roll_Min,Acc_Global_X_Magnitude,Vel_X_Magnitude,X,Y,Z
-134.57130432128906,8.09506607055664,18.44539260864257,-1.0388768911361694,-7.562953472137451,-7.330729961395264,5.917618751525879,5.608480453491211,-8.818880081176758,0.0,-1.0301126849715914,-7.499150644287046,-7.268886224888377,0.0,0.0,0.0,0.0,0.0,0.0,0.4042220223743679,0.2248530549544005,20.383702182483493,,,,,,,,,,,,,,,,,,,20.388949678781323,0.0,-956.595642,4138.782227,0.0
-134.53314208984375,8.013421058654785,18.45718002319336,-1.0267363786697388,-7.719768524169922,-7.374853610992432,6.026645183563232,4.834021091461182,-8.567052841186523,0.0083333333333333,-1.0006203564866816,-7.527577109745399,-7.189473580549152,-0.0083385029707223,-0.0627298092478783,-0.0599122798379096,-6.948752475601954e-05,-0.0005227484103989,-0.0004992689986492,0.3975280791687977,0.298104648004135,20.524036796965344,-18.817806243896484,-5.294837951660156,1.4568614959716797,,,,,,,,,,,,,,,,20.530050691561303,0.0871437942451666,-957.950195,4138.534668,2.368774999999914
-134.48593139648438,7.937059879302978,18.47711753845215,-0.9960350394248962,-7.657115459442139,-7.283552169799805,6.966765880584717,3.776333093643189,-8.875014305114746,0.0166666666666666,-0.953075721910177,-7.336829448727713,-6.976081089814406,-0.0162808006533071,-0.1238700546539426,-0.1180462889196963,-0.0002051608635335,-0.0015549988658485,-0.00148298807298,0.3945623979365741,0.3103998117915736,20.41290562252441,7.518367767333984,10.956172943115234,3.684160709381104,,,,,,,,,,,,,,,,20.41907792930705,0.1718830452301677,-958.924988,4138.032227,4.308959999999843
-134.43289184570312,7.863248348236084,18.504539489746094,-0.9295864701271056,-7.478734016418457,-7.259945392608643,7.559247970581055,2.836648464202881,-9.206767082214355,0.025,-0.8707467031296232,-7.033476211717481,-6.832391037630231,-0.0235370231793873,-0.1824823564182549,-0.1749828808999482,-0.0004013027233618,-0.0030756851693339,-0.0029411787471462,0.4626201825371808,0.2091884979927107,20.26201527632132,21.4057731628418,2.832813262939453,7.973828315734877,,,,,,,,,,,,,,,,20.268375374431507,0.25391496701091,-959.946411,4137.620117,6.258544999999913
-134.37925720214844,7.793883800506592,18.53321647644043,-0.9467257857322692,-7.347107887268066,-7.271054744720459,7.597862243652344,2.426705837249756,-9.006837844848633,0.0333333333333333,-0.8725571309753724,-6.780560030517994,-6.724547268180461,-0.0308083326041821,-0.2389870233392382,-0.231020774801452,-0.0006580388283966,-0.0050672436971609,-0.0048663518704917,0.4582126072058407,0.092217236863485,20.179477243770386,15.795135498046877,-1.3331222534179688,-2.056717872619629,-0.0157929318815197,-0.1216138487318628,-0.1167924448918012,0.0121517121492279,0.0945301355651631,0.0912573814575771,-0.0789646594075989,-0.608069243659314,-0.5839622244590063,0.0,0.0,0.0,-0.0308083326041821,-0.2389870233392382,-0.231020774801452,20.184889512801995,0.3338181377221177,-960.885071,4137.353027,7.9368899999999485
-134.32785034179688,7.726070880889893,18.56328392028809,-0.9520769715309144,-7.276472091674805,-7.178725719451904,7.327733516693115,2.092362880706787,-8.919645309448242,0.0416666666666666,-0.8625210367084025,-6.591379208489859,-6.514968744516553,-0.0379960079100854,-0.293915183409987,-0.2853121810057566,-0.0009746722276473,-0.0075165368922441,-0.007243953378873,0.4244729406416825,0.0889664048938096,20.066681106343577,8.476295471191406,11.079483032226562,-0.642142295837429,-0.0233921334635368,-0.1803968854138602,-0.1738548810929525,0.0116777244885943,0.0913295965727619,0.0891479904877773,-0.1169606673176844,-0.9019844270693012,-0.8692744054647629,-0.0083385029707223,-0.0627298092478783,-0.0599122798379096,-0.0379960079100854,-0.293915183409987,-0.2853121810057566,20.071367240978454,0.411379231714839,-961.607971,4137.035645,9.433837999999923
-134.28018188476562,7.659729480743408,18.5931339263916,-0.940853476524353,-7.206787586212158,-7.22956657409668,6.871954441070557,2.056938648223877,-8.850104331970215,0.05,-0.8360920572032285,-6.405352226526967,-6.449917368139372,-0.0449634417201123,-0.347293118631045,-0.3390614924069181,-0.0013493675753149,-0.0104106462141695,-0.0100694658155973,0.4517180364958447,-0.0003374344552703,20.051365930773493,8.362140655517578,-6.100902557373047,1.3468194007873668,-0.0307171212134148,-0.2373095472904935,-0.2296847236067543,0.0113568186360965,0.0882863767517217,0.0873425845414678,-0.1535856060670744,-1.186547736452468,-1.1484236180337717,-0.0162808006533071,-0.1238700546539426,-0.1180462889196963,-0.0449634417201123,-0.347293118631045,-0.3390614924069181,20.05645344990339,0.4874391418146492,-962.135681,4136.75,10.720092999999906
-134.23623657226562,7.592267513275146,18.621137619018555,-0.9409670829772948,-7.079092502593994,-7.139946937561035,6.474676609039307,2.223507881164551,-8.725619316101074,0.0583333333333333,-0.821225041524381,-6.163983176090693,-6.245731624023661,-0.0518069837328155,-0.3986596450984675,-0.3911092559404486,-0.0017810924397551,-0.0137328099233234,-0.013328709615101,0.431328495945414,-0.0414947174455759,19.89910530719776,15.323410034179688,10.754356384277344,-0.013632774353014,-0.0378223578293165,-0.2922674653793985,-0.2842973170109047,0.0111788005960617,0.0855005980234327,0.0854356059346365,-0.1891117891465828,-1.4613373268969927,-1.4214865850545235,-0.0235370231793873,-0.1824823564182549,-0.1749828808999482,-0.0518069837328155,-0.3986596450984675,-0.3911092559404486,19.903822700926987,0.5608742517497302,-962.516052,4136.533691,11.691528999999946
-134.20501708984375,7.5306525230407715,18.645790100097656,-0.9006868600845337,-7.0720415115356445,-7.042742729187012,4.986476898193359,2.0906341075897217,-8.015962600708008,0.0666666666666666,-0.7664327000381188,-6.045378927450019,-6.036528313419493,-0.0581939228997998,-0.4490378028272176,-0.4414136585522777,-0.0022660417972534,-0.0174747916135502,-0.0170071567697033,0.4308919164466849,0.0211087231749263,19.821948845678133,0.8461189270019531,11.664505004882812,4.833626747131334,-0.044753737773399,-0.3455785546611911,-0.3375834725413706,0.0108463365794672,0.0829988198730788,0.083270339897646,-0.2237686888669953,-1.7278927733059557,-1.687917362706853,-0.0308083326041821,-0.2389870233392382,-0.231020774801452,-0.0581939228997998,-0.4490378028272176,-0.4414136585522777,19.82664291963049,0.6323507721090169,-962.809875,4136.28418,12.485717999999906
-134.1817169189453,7.476390838623047,18.670642852783203,-0.9059002995491028,-7.178157329559326,-6.9741973876953125,4.053248405456543,1.3785837888717651,-7.332292556762695,0.075,-0.757555944725932,-6.040074867844798,-5.858354488212838,-0.0645068891058493,-0.4993717600592576,-0.4902332792873847,-0.0028035992064688,-0.0216362229473774,-0.0210924340970982,0.3823762473653731,0.1305716752355402,19.851054060517875,-12.733898162841797,8.225440979003906,-0.625612735748291,-0.0514934490737325,-0.3976555020051949,-0.3894259734385571,0.010478146173706,0.0810644337163306,0.0809998896300024,-0.2574672453686625,-1.9882775100259749,-1.947129867192786,-0.0379960079100854,-0.293915183409987,-0.2853121810057566,-0.0645068891058493,-0.4993717600592576,-0.4902332792873847,19.85516577292988,0.7027531299166573,-962.997375,4136.029785,13.23474199999987
-134.1593475341797,7.43214750289917,18.69752311706543,-0.9017302989959716,-7.255899906158447,-7.009998798370361,3.8992555141448975,0.4381571412086487,-6.704488754272461,0.0833333333333333,-0.7394098640695373,-6.0058175239349865,-5.785758960084141,-0.0706686379730954,-0.5494202394253825,-0.5384479372880859,-0.0033925045229113,-0.0262147249425889,-0.0255795002411656,0.3809007438717257,0.15620961389217,19.930859514552957,-9.329109191894531,-4.296169281005859,0.5004000663757457,-0.0580279750863345,-0.4487565132082741,-0.440053124695023,0.0101387004747093,0.0798431035642631,0.0787341256911431,-0.2901398754316725,-2.2437825660413706,-2.200265623475115,-0.0449634417201123,-0.347293118631045,-0.3390614924069181,-0.0706686379730954,-0.5494202394253825,-0.5384479372880859,19.935110930441304,0.7725172082568851,-963.148193,4135.843262,13.797485999999935
-134.1410369873047,7.396542549133301,18.726703643798828,-0.8516649007797241,-7.258885860443115,-6.97248649597168,3.389019250869751,-0.5569943189620972,-6.087337970733643,0.0916666666666666,-0.6759482641653712,-5.897101491779116,-5.6408120301107765,-0.0763015401744735,-0.5985627518568751,-0.5854547042056757,-0.0040283506910319,-0.0312027478747295,-0.0304582894428796,0.410686956134693,0.1937440494210712,19.900893143921568,-0.3583145141601562,4.501476287841797,6.007847785949694,-0.0642955947772067,-0.49901043985344,-0.4893317670547745,0.009721096327958,0.0790877483079919,0.0768059840788306,-0.3214779738860337,-2.4950521992672003,-2.4466588352738725,-0.0518069837328155,-0.3986596450984675,-0.3911092559404486,-0.0763015401744735,-0.5985627518568751,-0.5854547042056757,19.906073155155685,0.8407475861517696,-963.224976,4135.732422,14.26940999999988
-134.12440490722656,7.372024059295654,18.754602432250977,-0.8464788198471069,-7.2514424324035645,-6.992099285125732,3.2012417316436768,-1.303290843963623,-5.091227054595947,0.1,-0.6579499053496771,-5.77897319452329,-5.55408388687122,-0.0817844560523875,-0.6467208618112359,-0.6317387365962692,-0.0047098878248018,-0.0365920883898231,-0.0357227789145151,0.4195174384480449,0.1735479254267398,19.908677259541797,0.8932113647460938,-2.353534698486328,0.6223297119140625,-0.0702910892411211,-0.5486226831959937,-0.5374576631859387,0.0093295759391845,0.0781995860431895,0.0752466123050079,-0.3514554462056056,-2.743113415979969,-2.6872883159296936,-0.0581939228997998,-0.4490378028272176,-0.4414136585522777,-0.0817844560523875,-0.6467208618112359,-0.6317387365962692,19.91385306735436,0.907761202998841,-963.209167,4135.727539,14.549926999999798
-134.10916137695312,7.353316783905029,18.77814102172852,-0.8458829522132874,-7.172490119934082,-7.055436134338379,3.11118221282959,-1.4887635707855225,-4.163120269775391,0.1083333333333333,-0.6447037706059298,-5.591038819270718,-5.511316386500234,-0.0871569874741036,-0.6933128519718252,-0.6776663731504379,-0.0054361960537526,-0.0423696954895883,-0.0413699986907688,0.4485488825877333,0.0747085883826345,19.89625470934955,9.47427749633789,-7.600421905517578,0.0715041160583496,-0.0760837021559818,-0.5974776930249153,-0.5847082061055706,0.0089234132571106,0.0767214729471154,0.0740256258777308,-0.3804185107799094,-2.9873884651245763,-2.9235410305278533,-0.0645068891058493,-0.4993717600592576,-0.4902332792873847,-0.0871569874741036,-0.6933128519718252,-0.6776663731504379,19.90145042283509,0.9734016460196356,-963.213928,4135.702148,14.81262199999992
-134.1048126220703,7.340022087097168,18.79535675048828,-0.7987308502197266,-7.1171040534973145,-7.078062534332275,1.8922516107559204,-1.3316198587417605,-3.2371139526367188,0.1166666666666666,-0.5854164256331108,-5.428766559235594,-5.428050494647578,-0.0920354576877128,-0.7385525732987885,-0.722900127272501,-0.0062031582011502,-0.0485243002670783,-0.0473941664180396,0.5055767775534465,0.0355721212003875,19.866502228186043,6.646327972412109,-2.715167999267578,5.658252239227295,-0.0815894158723545,-0.6453138556728215,-0.631241575702594,0.0084761533601898,0.0748007237958643,0.0729107262249504,-0.4079470793617729,-3.226569278364108,-3.1562078785129697,-0.0706686379730954,-0.5494202394253825,-0.5384479372880859,-0.0920354576877128,-0.7385525732987885,-0.722900127272501,19.87296616100196,1.037552419402821,-963.114929,4135.68457,15.011841000000004
-134.10694885253906,7.329156875610352,18.80411529541016,-0.804576575756073,-7.108902931213379,-7.083884716033936,1.2519214153289795,-0.8818597793579102,-2.264183282852173,0.125,-0.5795835756195278,-5.315163473099196,-5.328678748500736,-0.0968653208178755,-0.7828456022412819,-0.7673057835100071,-0.0070103692079659,-0.0550480136190889,-0.053788381280623,0.5011231514616836,0.0240839755647739,19.865523982912023,0.9841346740722656,-0.6986618041993253,-0.7014870643615723,-0.0868287524413106,-0.6919989282360014,-0.6770131449469782,0.0081273819079005,0.072805406388458,0.0719227407625499,-0.434143762206553,-3.459994641180007,-3.3850657247348908,-0.0763015401744735,-0.5985627518568751,-0.5854547042056757,-0.0968653208178755,-0.7828456022412819,-0.7673057835100071,19.871858181017263,1.100449132278985,-963.000366,4135.799316,15.148803999999927
-134.11968994140625,7.32267427444458,18.80916786193848,-0.8655850291252136,-7.071092128753662,-7.001068592071533,0.0281628519296646,-0.8658379316329956,-1.6423076391220093,0.1333333333333333,-0.6284541192275162,-5.17327702055123,-5.142253575411982,-0.1021024384781048,-0.8259562440792088,-0.8101578966384403,-0.0078612228619501,-0.061930982319749,-0.0605396970859434,0.4211362405525123,0.0342415511363876,19.789279260043145,4.537296295166016,9.937934875488388,-7.321014404296875,-0.0919889321020368,-0.737477626680468,-0.7219537834335311,0.0079615225160161,0.0708434756136832,0.0706006275632431,-0.4599446605101844,-3.68738813340234,-3.609768917167656,-0.0817844560523875,-0.6467208618112359,-0.6317387365962692,-0.1021024384781048,-0.8259562440792088,-0.8101578966384403,19.79378947672488,1.1614578953032393,-962.811096,4135.901367,15.204955999999811
-134.1432342529297,7.321875095367432,18.81512451171875,-0.9104451537132264,-7.196072578430176,-6.956537246704102,-1.2729250192642212,-1.4827055931091309,-1.1646535396575928,0.1416666666666666,-0.660392071288403,-5.194376231914718,-4.996112308306318,-0.1076057057388415,-0.8692427126784981,-0.8517921658743263,-0.0087579370764404,-0.0691746715920698,-0.0676379651348961,0.3462693087174392,0.1388140032161754,19.85323700980354,-14.99765396118164,5.343761444091797,-5.383214950561537,-0.0971531820393277,-0.7819819968539206,-0.7659644692891424,0.0080614555663573,0.0694572617585212,0.0688700642167576,-0.4857659101966385,-3.9099099842696026,-3.829822346445712,-0.0871569874741036,-0.6933128519718252,-0.6776663731504379,-0.1076057057388415,-0.8692427126784981,-0.8517921658743263,19.85674171482022,1.2217658430718643,-962.619751,4136.041016,15.196899999999914
-134.17039489746094,7.327514171600342,18.826875686645508,-0.9008364081382751,-7.160891056060791,-6.908224582672119,-1.8034470081329343,-2.448106288909912,-1.1502585411071775,0.15,-0.6376796019562179,-5.055486893643552,-4.847883675683229,-0.11291970242181,-0.9113717701255276,-0.8921911965050199,-0.0096989345966222,-0.0767694363431159,-0.0750728917724379,0.344282367855566,0.1539421632014276,19.793546729354595,4.221782684326172,5.797519683837891,1.153049468994154,-0.1023057250288689,-0.825593780484661,-0.808869433960059,0.0083045774468583,0.06831325394799,0.0669044017530422,-0.5115286251443449,-4.127968902423305,-4.044347169800295,-0.0920354576877128,-0.7385525732987885,-0.722900127272501,-0.11291970242181,-0.9113717701255276,-0.8921911965050199,19.797139204076213,1.2803727948132242,-962.396484,4136.066895,15.1546629999998
-134.20030212402344,7.340136528015137,18.84469413757324,-0.914877951145172,-7.151662826538086,-6.888263702392578,-2.216924905776977,-3.617486000061035,-0.9948441982269288,0.1583333333333333,-0.6386977514384561,-4.943857849870826,-4.729481930587787,-0.1182421836837971,-0.9525705855411178,-0.9316035459265848,-0.0106842861273205,-0.0847075245559585,-0.0828362546551595,0.3264294055381915,0.1617827546933756,19.77487480438973,1.1073875427246094,2.395305633544922,-1.6849851608276234,-0.1075470702280858,-0.8683973829331268,-0.8506101176908757,0.0084705054748539,0.0671807227204915,0.0649351850925634,-0.5377353511404293,-4.341986914665634,-4.2530505884543786,-0.0968653208178755,-0.7828456022412819,-0.7673057835100071,-0.1182421836837971,-0.9525705855411178,-0.9316035459265848,19.778230541325076,1.337631152905556,-962.138733,4136.109375,15.099120999999968
-134.2265167236328,7.363626956939697,18.869308471679688,-0.9430775046348572,-7.322007656097412,-6.87845516204834,-1.88960063457489,-5.044121742248535,-0.6832982301712036,0.1666666666666666,-0.6536349592860591,-5.01136676332773,-4.62237303777649,-0.1236891416778476,-0.9943319752355156,-0.9701233212413888,-0.0117150289746359,-0.0929936243495878,-0.0909206156655044,0.275564902864345,0.2823541076712145,19.89259276447271,-20.44137954711914,1.1770248413085938,-3.3839464187622204,-0.1129118344000802,-0.9106946575319737,-0.891173625237152,0.0085082471625951,0.0664231043902693,0.0632121745776206,-0.5645591720004014,-4.553473287659868,-4.45586812618576,-0.1021024384781048,-0.8259562440792088,-0.8101578966384403,-0.1236891416778476,-0.9943319752355156,-0.9701233212413888,19.896504887817898,1.3946807301892383,-961.891174,4136.252441,15.028442999999925
-134.24124145507812,7.397241592407227,18.899810791015625,-0.9498274326324464,-7.21586275100708,-6.875695705413818,-0.5922779440879822,-6.456478118896484,-0.2438731342554092,0.175,-0.6469474804984701,-4.802774924392232,-4.523301655167176,-0.1290803706820016,-1.0343550996054507,-1.0078175017011153,-0.0127906987303192,-0.1016132501796333,-0.099319094846347,0.2876864178403809,0.2132449935567562,19.8158883625749,12.737388610839844,0.3311347961425781,-0.8099913597107067,-0.1183074208408596,-0.952374428637222,-0.9307055462496872,0.0084937894844029,0.0653326197426468,0.0616674504920951,-0.5915371042042981,-4.7618721431861095,-4.653527731248436,-0.1076057057388415,-0.8692427126784981,-0.8517921658743263,-0.1290803706820016,-1.0343550996054507,-1.0078175017011153,19.819123807583377,1.4499132149581515,-961.622864,4136.386719,14.9257819999998
-134.2519073486328,7.438591003417969,18.929759979248047,-1.09978187084198,-7.271254062652588,-6.833861351013184,-0.1109608635306358,-6.992199420928955,0.4103528559207916,0.1833333333333333,-0.7822641412950744,-4.757077568223304,-4.386408263337329,-0.1355992385261272,-1.0739974126739782,-1.044370903895593,-0.0139206923847036,-0.1105632286185831,-0.1080221857121436,0.1321737966162426,0.2346020028080095,19.845427681953208,-6.6469573974609375,5.020122528076172,-17.99453258514403,-0.1239061273983167,-0.993325368636318,-0.9692212938539404,0.0088928414521824,0.0643618198613598,0.0601803033801604,-0.6195306369915837,-4.96662684318159,-4.846106469269702,-0.11291970242181,-0.9113717701255276,-0.8921911965050199,-0.1355992385261272,-1.0739974126739782,-1.044370903895593,19.847254416968312,1.5041835595508155,-961.388794,4136.440918,14.804565999999795
-134.25241088867188,7.482158184051514,18.96083068847656,-1.0795094966888428,-7.101928234100342,-6.86055326461792,1.0992989540100098,-7.337429046630859,0.561733067035675,0.1916666666666666,-0.7463921108854092,-4.488545641317966,-4.319037588530512,-0.1418191727835056,-1.1114019596849611,-1.080362883800014,-0.0151025188245662,-0.1198249116159578,-0.1170252097438104,0.1902058573013352,0.1095941079988304,19.74084726273407,20.31909942626953,-3.20302963256836,2.432684898376465,-0.1296860214706558,-1.0333314065482049,-1.006855631312939,0.0093470623746814,0.0628351993734974,0.0587872775309007,-0.6484301073532793,-5.166657032741023,-5.034278156564696,-0.1182421836837971,-0.9525705855411178,-0.9316035459265848,-0.1418191727835056,-1.1114019596849611,-1.080362883800014,19.742067768783876,1.5564417607007506,-961.124207,4136.42334,14.735961999999972
-134.25714111328125,7.52674388885498,18.98777198791504,-1.1066086292266846,-7.010411739349365,-6.843071937561035,0.6432758569717407,-7.008092403411865,0.9386080503463744,0.2,-0.7579746837435521,-4.300931785370522,-4.20827882896899,-0.1481356284813685,-1.147243057896382,-1.1154318740414224,-0.0163369823952442,-0.1293852704317609,-0.1263204753608222,0.1788690745609629,0.0523607418021242,19.667147313650403,10.981979370117188,2.097759246826172,-3.251895904541016,-0.1356647104301701,-1.0722659010192577,-1.0436212969359069,0.0097490161981793,0.060553961319175,0.0574263208044025,-0.6783235521508506,-5.361329505096288,-5.218106484679534,-0.1236891416778476,-0.9943319752355156,-0.9701233212413888,-0.1481356284813685,-1.147243057896382,-1.1154318740414224,19.66803038562689,1.606953348403298,-960.874084,4136.353027,14.652466000000004
-134.26881408691406,7.570539951324463,19.010467529296875,-1.1771565675735474,-7.142430305480957,-6.817518711090088,-0.1138552650809288,-6.643641471862793,1.276908040046692,0.2083333333333333,-0.8123226993835762,-4.33739590602183,-4.090669993174159,-0.154904984309565,-1.1833880237798975,-1.149520790651207,-0.0176278572644906,-0.1392468372965934,-0.1358998152829156,0.0927786632668755,0.141710743413977,19.75232768591648,-15.842227935791016,3.066387176513672,-8.465752601623535,-0.1419078789565136,-1.110077110728134,-1.0795007908178704,0.0101496476921658,0.0587220580495489,0.0560517377437047,-0.709539394782568,-5.55038555364067,-5.397503954089352,-0.1290803706820016,-1.0343550996054507,-1.0078175017011153,-0.154904984309565,-1.1833880237798975,-1.149520790651207,19.7530539114077,1.65704581020834,-960.667358,4136.405273,14.62536699999987
-134.27743530273438,7.613049507141113,19.02635955810547,-1.2369376420974731,-7.108804702758789,-6.831316947937012,0.3473674654960632,-5.894911766052246,1.676771879196167,0.2166666666666666,-0.8549509819400039,-4.208268412669594,-4.013362759605988,-0.1620295758257317,-1.2184569272188108,-1.1829654803145904,-0.018978103729705,-0.1494006450234168,-0.1457578609522039,0.0522744016350715,0.0940721820917125,19.745815421346396,4.035072326660156,-1.6557884216308594,-7.173728942871094,-0.1484977199852596,-1.1468974762508055,-1.1145303865405654,0.0104315517247394,0.0570674720709434,0.0547683174105599,-0.7424885999262981,-5.734487381254029,-5.5726519327028265,-0.1355992385261272,-1.0739974126739782,-1.044370903895593,-0.1620295758257317,-1.2184569272188108,-1.1829654803145904,19.746108701270508,1.705959611053469,-960.464783,4136.422852,14.614623999999822
-134.2899932861328,7.65090799331665,19.033910751342773,-1.2346817255020142,-7.056117534637451,-6.8518781661987305,0.0165083743631839,-4.8570733070373535,2.022538423538208,0.225,-0.835212100053037,-4.061692283967753,-3.943374077020911,-0.168989676659507,-1.2523043629185422,-1.2158269309564314,-0.0203863510352009,-0.1598365147144047,-0.1558897520435075,0.0737339445511111,0.0492844333466102,19.72229551518659,6.322460174560547,-2.46734619140625,0.2707099914550781,-0.1551758076119355,-1.1825588662997188,-1.1488215919527331,0.0107915971730728,0.0558218242729663,0.053519803415239,-0.7758790380596778,-5.912794331498594,-5.7441079597636655,-0.1418191727835056,-1.1114019596849611,-1.080362883800014,-0.168989676659507,-1.2523043629185422,-1.2158269309564314,19.722494924281214,1.7535845728795734,-960.199463,4136.414062,14.552734999999984
-134.3024444580078,7.682427883148193,19.033838272094727,-1.1931289434432983,-7.114726066589356,-6.846597194671631,0.1389059722423553,-3.615513324737549,2.057668209075928,0.2333333333333333,-0.7767043167380572,-4.0272356232972175,-3.848257506499067,-0.1754622126323241,-1.2858646597793524,-1.2478957435105902,-0.0218485361404703,-0.1705520535458993,-0.1662888832394291,0.1073714763028142,0.1104502519786789,19.75459898298006,-7.033023834228622,0.6337165832519531,4.986333847045898,-0.1619044155816992,-1.217451406318597,-1.1823281638948484,0.010869705456461,0.0547394718719457,0.052376326710721,-0.8095220779084964,-6.087257031592985,-5.911640819474242,-0.1481356284813685,-1.147243057896382,-1.1154318740414224,-0.1754622126323241,-1.2858646597793524,-1.2478957435105902,19.755199540132278,1.8004107025907032,-959.971375,4136.379395,14.520873999999822
-134.3137664794922,7.704435348510742,19.03253555297852,-1.2015409469604492,-7.134281158447266,-6.854563236236572,0.3070634603500366,-2.77454686164856,1.3969491720199585,0.2416666666666666,-0.7685952935030114,-3.953935418860926,-3.767204923137692,-0.1818671734115159,-1.3188141216031934,-1.279289117870071,-0.0233640959188996,-0.1815421712259259,-0.1769496258883463,0.1023489428724327,0.1191997003559232,19.77503996880556,-2.346611022949112,-0.9559249877929688,-1.0094404220581057,-0.1686507245677287,-1.251765619059959,-1.215099612660578,0.0106532948438926,0.0534871503369546,0.0513069004312293,-0.8432536228386438,-6.258828095299796,-6.07549806330289,-0.154904984309565,-1.1833880237798975,-1.149520790651207,-0.1818671734115159,-1.3188141216031934,-1.279289117870071,19.775664075892102,1.8463279782328712,-959.81189,4136.253906,14.569946999999956
-134.3245391845703,7.719308376312256,19.031736373901367,-1.0902644395828247,-6.984851837158203,-6.825016975402832,0.3537581861019134,-2.158703565597534,0.6893815398216248,0.25,-0.6418167278679083,-3.713616506273791,-3.649657246274824,-0.1872156461437484,-1.3497609258221417,-1.3097029282556945,-0.0249242263034308,-0.1927901789411104,-0.1878638169571438,0.2193870994302049,0.0734500424693941,19.63365323297157,17.9315185546875,3.545551300048828,13.35318088531494,-0.1751128569345654,-1.285040199468408,-1.2471360401814755,0.0100110679796152,0.0520458862663773,0.0501176967532034,-0.8755642846728272,-6.42520099734204,-6.235680200907377,-0.1620295758257317,-1.2184569272188108,-1.1829654803145904,-0.1872156461437484,-1.3497609258221417,-1.3097029282556945,19.635016294383615,1.890033337091917,-959.646667,4136.281738,14.640136999999868
-134.33656311035156,7.730798244476318,19.02699089050293,-1.0405118465423584,-7.143632888793945,-6.869836330413818,0.2781962156295776,-1.600723147392273,0.7782117128372192,0.2583333333333333,-0.5780635605044944,-3.7822850154810954,-3.607175300579281,-0.1920328424812859,-1.3812799676178176,-1.3397627224271884,-0.0265244999907749,-0.2043008453379255,-0.1990285063107037,0.2598940130244078,0.1730377548430951,19.770487939690504,-19.053726196289062,-5.378322601318359,5.970311164855957,-0.1811135102656763,-1.3176048075482094,-1.2784954886039952,0.0091646111851173,0.050895946405494,0.0489691244428051,-0.9055675513283814,-6.588024037741048,-6.392477443019976,-0.168989676659507,-1.2523043629185422,-1.2158269309564314,-0.1920328424812859,-1.3812799676178176,-1.3397627224271884,19.772953252765625,1.933849816800476,-959.512207,4136.174316,14.662597999999889
-134.34475708007812,7.735428333282471,19.02496910095215,-1.0605448484420776,-7.040128231048584,-6.862287521362305,0.6815179586410522,-1.1967352628707886,-0.0864096209406852,0.2666666666666666,-0.584477428291422,-3.589053325214433,-3.5128361952899168,-0.1969034877170478,-1.411188745327938,-1.3690363573879378,-0.028165362388417,-0.2160607515489917,-0.2104371426222698,0.2531647679857035,0.1013885294450801,19.69457277161521,12.42055892944336,0.9058570861816406,-2.4039602279663086,-0.1866962724771844,-1.3493816840300883,-1.3091373738902965,0.0084032771843941,0.0495140015269637,0.0478737290374654,-0.9334813623859224,-6.746908420150443,-6.545686869451481,-0.1754622126323241,-1.2858646597793524,-1.2478957435105902,-0.1969034877170478,-1.411188745327938,-1.3690363573879378,19.69646081635225,1.9759770257433185,-959.337463,4136.04834,14.680419999999913
-134.3566131591797,7.732056617736816,19.020523071289062,-1.0793637037277222,-6.966261386871338,-6.83989953994751,0.2937312126159668,-0.3790138065814972,-0.5214033722877502,0.275,-0.5894772571973352,-3.42780681393134,-3.404733944194714,-0.2018157981936922,-1.439753802110699,-1.3974091402562272,-0.0298471607066977,-0.2280586998999142,-0.2220822187910717,0.237234574244777,0.0603340141945713,19.62927334354369,8.864021301269531,2.68655776977539,-2.258262634277344,-0.191966989589458,-1.380159512496358,-1.3390400532394238,0.0078414592496742,0.0479658188715164,0.0467388810636388,-0.9598349479472904,-6.90079756248179,-6.695200266197119,-0.1818671734115159,-1.3188141216031934,-1.279289117870071,-0.2018157981936922,-1.439753802110699,-1.3974091402562272,19.63079958718037,2.016524964478352,-959.194458,4135.972656,14.7382819999998
-134.37237548828125,7.722583293914795,19.01105690002441,-1.2012200355529783,-7.226447105407715,-6.792125701904297,-0.1097441837191581,0.6155356168746948,-0.6804549694061279,0.2833333333333333,-0.6964577269237868,-3.5998746229030854,-3.272654459315194,-0.2076196125847238,-1.469752757301558,-1.4246812607505204,-0.0315773241449038,-0.2403066395440938,-0.2339545626306594,0.0696592631571666,0.2339642550699463,19.79688375850767,-31.222286224365234,5.732860565185547,-14.622759819030737,-0.1971174774240996,-1.410347239636031,-1.3681184818155137,0.0080049145496212,0.0471966029011974,0.0454823018230614,-0.9855873871204982,-7.051736198180155,-6.840592409077568,-0.1872156461437484,-1.3497609258221417,-1.3097029282556945,-0.2076196125847238,-1.469752757301558,-1.4246812607505204,19.79838877872285,2.057424546820382,-958.940186,4135.833984,14.669189999999844
-134.3712921142578,7.70693302154541,19.00591087341309,-1.2028886079788208,-7.109969615936279,-6.771424770355225,1.8582358360290527,0.7089763879776001,-1.5169901847839355,0.2916666666666667,-0.6823476051555455,-3.3949090733343885,-3.1690326749459974,-0.2133058426276866,-1.4980436662460113,-1.4510898663750704,-0.0333548728334678,-0.2527903367628106,-0.246046978183785,0.074914162449108,0.1650634032753498,19.700295460929684,13.977298736572266,2.484111785888672,-0.2002286911011008,-0.2023355167208873,-1.4400037877208047,-1.3963958694393888,0.0084289955293174,0.0461857253346083,0.0440124403446671,-1.0116775836044365,-7.200018938604024,-6.981979347196944,-0.1920328424812859,-1.3812799676178176,-1.3397627224271884,-0.2133058426276866,-1.4980436662460113,-1.4510898663750704,19.701129391655773,2.0964961265824744,-958.621826,4135.648926,14.420898999999963
-134.3714599609375,7.690242290496826,19.00453758239746,-1.0713475942611694,-6.927992343902588,-6.809648990631104,1.6354562044143677,0.5330193638801575,-1.970272660255432,0.3,-0.5362708290527649,-3.1278093027197045,-3.124985902797522,-0.2177747662031263,-1.5241087437686756,-1.4771314155650497,-0.0351696625518272,-0.2654912429608829,-0.2583564066468271,0.232699216903874,0.0559413155828522,19.58030729323129,21.83727264404297,-4.586906433105575,15.784921646118164,-0.2074839014652553,-1.4685695429509764,-1.423869608066961,0.0084244860858137,0.0449378171023903,0.0426768764004405,-1.0374195073262769,-7.342847714754882,-7.119348040334805,-0.1969034877170478,-1.411188745327938,-1.3690363573879378,-0.2177747662031263,-1.5241087437686756,-1.4771314155650497,19.58176989073519,2.133600368034315,-958.33551,4135.531738,14.070312999999942
-134.37509155273438,7.669429779052734,19.004165649414062,-1.1156712770462036,-6.892792701721191,-6.835999488830566,1.2147166728973389,0.7377540469169617,-2.35571551322937,0.3083333333333333,-0.5669317418384345,-3.0101409592641053,-3.0693150796299866,-0.2224991973851133,-1.549193251762543,-1.5027090412286328,-0.0370238225300365,-0.2784011867255708,-0.270878981990399,0.2009107762312678,-0.0003138782025517,19.57963855012524,4.223957061767578,-3.1620597839354403,-5.318841934204102,-0.2126030433988685,-1.4961704442378974,-1.4506041448351,0.0081604802100663,0.0432325321694671,0.0415949416317179,-1.0630152169943423,-7.480852221189487,-7.253020724175501,-0.2018157981936922,-1.439753802110699,-1.3974091402562272,-0.2224991973851133,-1.549193251762543,-1.5027090412286328,19.58066931930765,2.1697096779831857,-957.873474,4135.326172,13.538696999999956
-134.37989807128906,7.653976440429687,18.99009895324707,-1.0135945081710815,-6.747626304626465,-6.877192497253418,1.277753233909607,1.5066677331924438,-0.8073606491088867,0.3166666666666666,-0.4518096340633053,-2.7848289589587987,-3.0287115082087226,-0.2262642776689742,-1.5724001597538664,-1.5279483037970387,-0.0389093581772779,-0.2915045213901863,-0.283611884522041,0.3269968720081624,-0.0946224740680344,19.491824768671368,17.419967651367188,-4.943161010742188,12.249212265014648,-0.2174927392939248,-1.522699715766531,-1.4767119775432624,0.0073670343757001,0.0405750173464952,0.0408193350239209,-1.0874636964696245,-7.613498578832655,-7.383559887716312,-0.2076196125847238,-1.469752757301558,-1.4246812607505204,-0.2262642776689742,-1.5724001597538664,-1.5279483037970387,19.494797079720847,2.204146956266595,-957.374756,4135.102051,12.979614999999967
-134.38827514648438,7.639791965484619,18.96823501586914,-0.9940427541732788,-6.702117919921875,-6.8508782386779785,0.9905152320861816,2.00788688659668,-0.0009989551035687,0.325,-0.4203639851518219,-2.6615676074160666,-2.921270022561546,-0.2297673108785727,-1.594579889815667,-1.5522922206517182,-0.0408240857679327,-0.3047926871386502,-0.296547653027472,0.3403978504388132,-0.1024170147462711,19.43884615669816,5.461006164550781,3.1577110290527344,2.346210479736328,-0.2219222789526946,-1.5476651422693526,-1.502234169523502,0.0065607764517362,0.0381848940648562,0.0400410373497179,-1.1096113947634734,-7.738325711346762,-7.511170847617509,-0.2133058426276866,-1.4980436662460113,-1.4510898663750704,-0.2297673108785727,-1.594579889815667,-1.5522922206517182,19.44209607643352,2.237205663422288,-956.948792,4134.831543,12.305419999999913
-134.4123992919922,7.629515171051025,18.93889617919922,-1.11005699634552,-6.830840587615967,-6.685780048370361,-0.7978450059890747,2.368446111679077,0.9087674617767334,0.3333333333333333,-0.5237865183773218,-2.712601271529267,-2.67745082746142,-0.2341321985317171,-1.6171849004117442,-1.5746043108805634,-0.0427751874223637,-0.3182692279754147,-0.3096693556181433,0.158175062865593,0.0590858785522619,19.431005874241407,-15.446720123291016,19.811782836914062,-13.921709060668944,-0.2260875501335007,-1.5714933891024991,-1.5269370584246007,0.0063298280334783,0.0366200890656755,0.038677101440543,-1.1304377506675038,-7.857466945512495,-7.634685292123003,-0.2177747662031263,-1.5241087437686756,-1.4771314155650497,-0.2341321985317171,-1.6171849004117442,-1.5746043108805634,19.43173949435204,2.26924736958153,-956.502808,4134.583496,11.591552999999976
-134.4377899169922,7.625821113586426,18.905946731567383,-1.2424134016036987,-7.050286769866943,-6.563713073730469,-0.8762374520301819,2.0679781436920166,1.8236953020095823,0.3416666666666667,-0.6415780961959685,-2.852188756385046,-2.479858692335897,-0.2394786826666835,-1.6409531400482862,-1.5952697999833625,-0.0447708431112527,-0.3319438374758171,-0.3229632706180047,-0.0369401371828847,0.2511655374232369,19.519171705721423,-26.333541870117188,14.64803695678711,-15.882768630981444,-0.2304283334262122,-1.5948622683584213,-1.5505647353082632,0.0066384287977351,0.0361003929769513,0.0366779860306483,-1.152141667131061,-7.974311341792107,-7.752823676541316,-0.2224991973851133,-1.549193251762543,-1.5027090412286328,-0.2394786826666835,-1.6409531400482862,-1.5952697999833625,19.52082254359073,2.3010786562012733,-956.012024,4134.404785,10.90026899999998
-134.4539337158203,7.630927562713623,18.876502990722656,-1.2513972520828247,-7.048498630523682,-6.540457725524902,0.1659418195486068,1.0854417085647583,2.243614912033081,0.35,-0.6349439743902847,-2.769493708219329,-2.383052489196457,-0.2447698824532692,-1.6640322542834474,-1.6151285707266665,-0.0468105921316966,-0.3458107729281792,-0.3364226753740603,-0.0524765708627205,0.2649156218409713,19.502883018442358,0.2145767211914062,2.7906417846679688,-1.0780620574951172,-0.2348824704398433,-1.6178300688626024,-1.5730486412078697,0.0074142952306107,0.0363117820699968,0.0343940034840279,-1.1744123521992167,-8.089150344313012,-7.865243206039349,-0.2262642776689742,-1.5724001597538664,-1.5279483037970387,-0.2447698824532692,-1.6640322542834474,-1.6151285707266665,19.504752756911124,2.3318567577425084,-955.474487,4134.351562,10.075317999999925
-134.4601287841797,7.64176082611084,18.84979820251465,-1.2393779754638672,-7.039387226104736,-6.5900187492370605,1.3287513256072998,0.3156058192253113,2.549551486968994,0.3583333333333333,-0.6074808753112109,-2.680366377853331,-2.3595744006384125,-0.2498322230808626,-1.6863686407655585,-1.6347916907319864,-0.0488925273240371,-0.3598638449345588,-0.3500459394634935,-0.0226436586517429,0.2320593310675213,19.52920846221516,1.0933685302734375,-5.947322845458984,1.4423131942749023,-0.239596059522221,-1.6406237650649405,-1.5944173185948594,0.0080314902457588,0.0364351421447827,0.0325071213976944,-1.1979802976111051,-8.203118825324703,-7.972086592974296,-0.2297673108785727,-1.594579889815667,-1.5522922206517182,-0.2498322230808626,-1.6863686407655585,-1.6347916907319864,19.53060028337759,2.3619481798577526,-954.977417,4134.134766,9.21887199999992
-134.4648895263672,7.65939474105835,18.822229385375977,-1.2232590913772583,-7.006372451782227,-6.610665798187256,1.50016188621521,-0.1298897862434387,3.157991886138916,0.3666666666666666,-0.5763030404014227,-2.5684847403310416,-2.307321363452961,-0.2546347484175412,-1.707772680268317,-1.654019368760761,-0.05101448356085,-0.3740952839367948,-0.3638294342031665,0.0062266700907901,0.2027187860752937,19.518006301780225,3.961772918701172,-2.477645874023437,1.9342660903930664,-0.2445695470300147,-1.6632623231554706,-1.614762748216668,0.0081224890906388,0.0358346729278021,0.0313649874104762,-1.2228477351500735,-8.316311615777353,-8.07381374108334,-0.2341321985317171,-1.6171849004117442,-1.5746043108805634,-0.2546347484175412,-1.707772680268317,-1.654019368760761,19.519060009999983,2.391047146086468,-954.450806,4133.776855,8.135864999999967
-134.4690399169922,7.6845502853393555,18.7932186126709,-1.2224887609481812,-7.047777652740479,-6.630982398986816,1.6104694604873655,-0.6943891048431396,3.967235565185547,0.375,-0.560760893046395,-2.531738406199933,-2.255124410799767,-0.2593077558595945,-1.7288705003199831,-1.6728120721840924,-0.0531753815263466,-0.388502538106128,-0.3777695348047006,0.0117292840895834,0.2206138830440486,19.561244439931176,-4.968624114990341,-2.4379920959472656,0.0924396514892578,-0.2496046584955902,-1.6855994431371184,-1.6344043004773738,0.0078328496504421,0.034724143308884,0.0306721404078044,-1.248023292477951,-8.427997215685592,-8.172021502386869,-0.2394786826666835,-1.6409531400482862,-1.5952697999833625,-0.2593077558595945,-1.7288705003199831,-1.6728120721840924,19.5624919706114,2.419614421342881,-953.84729,4133.565918,7.102662000000009
-134.46682739257812,7.715057373046875,18.76826286315918,-1.2215073108673096,-7.093601703643799,-6.635695934295654,2.299659013748169,-1.4332189559936523,4.046498775482178,0.3833333333333333,-0.545165034563641,-2.499457221216056,-2.187844038408377,-0.2638507978142915,-1.7496993104967835,-1.6910441058374956,-0.055374138174799,-0.4030833656936012,-0.391861569020013,0.0131143844666167,0.2510016801735225,19.5967539022057,-5.498886108398331,-0.5656242370605469,0.1177740097045898,-0.2544790815251118,-1.7073486772268178,-1.6535591616482002,0.0075337778410356,0.0338135298834942,0.0300213910351135,-1.272395407625559,-8.53674338613409,-8.267795808241,-0.2447698824532692,-1.6640322542834474,-1.6151285707266665,-0.2638507978142915,-1.7496993104967835,-1.6910441058374956,19.598365680182216,2.447589648725434,-953.005737,4133.402344,5.99401899999998
-134.46554565429688,7.746618747711182,18.74834442138672,-1.2232725620269775,-7.087407112121582,-6.676007270812988,2.1200644969940186,-2.004096031188965,3.759683132171631,0.3916666666666666,-0.5324509625631477,-2.415606971356984,-2.1565099888470494,-0.2682878891689844,-1.769829368591425,-1.709015022411221,-0.0576098705845406,-0.4178319437651964,-0.4061033608734399,0.0304020908988952,0.2216424781283735,19.62054324380998,0.7433509826660156,-4.837360382080078,-0.2118301391601562,-0.2591826828682548,-1.7285081000884133,-1.6723364519851114,0.0072942876311714,0.033023997450109,0.0293285044416638,-1.2959134143412745,-8.642540500442067,-8.361682259925557,-0.2498322230808626,-1.6863686407655585,-1.6347916907319864,-0.2682878891689844,-1.769829368591425,-1.709015022411221,19.62181864296629,2.4748750942685365,-952.369629,4133.212402,4.90625
-134.46920776367188,7.77547550201416,18.729093551635746,-1.221674561500549,-7.150615215301514,-6.685518264770508,1.499969482421875,-1.7797666788101196,3.4264674186706543,0.4,-0.516513177433247,-2.401460637849018,-2.094682635073738,-0.2725921656475947,-1.7898415405735002,-1.7264707110368356,-0.0598814719649372,-0.4327472899366423,-0.4204906167987469,0.0310487796169378,0.2620711284548556,19.67155646219266,-7.584972381591797,-1.1413192749023438,0.1917600631714133,-0.2637346713816013,-1.7492026800500018,-1.690672256046081,0.0070994130255717,0.0324309509617033,0.0286380212473401,-1.3186733569080065,-8.746013400250009,-8.453361280230405,-0.2546347484175412,-1.707772680268317,-1.654019368760761,-0.2725921656475947,-1.7898415405735002,-1.7264707110368356,19.67332658571801,2.501707485938954,-951.578674,4133.143066,3.731811999999991
-134.4765167236328,7.798540115356445,18.7112045288086,-1.2248077392578125,-7.195857048034668,-6.754786014556885,1.060813546180725,-1.4619965553283691,2.8638508319854736,0.4083333333333333,-0.5054337794132242,-2.36921486821048,-2.0926741222071765,-0.2768041138093716,-1.809584997808588,-1.7439096620552288,-0.0621881729133486,-0.4478271649183805,-0.4350231973158738,0.0476189957568292,0.2502468689330347,19.751969407123603,-5.429019927978516,-8.312129974365234,-0.3759813308716087,-0.2681685444599673,-1.7695651435580555,-1.7086503147049747,0.0069157833301136,0.0318727788893831,0.0280859365625029,-1.3408427222998367,-8.847825717790279,-8.543251573524874,-0.2593077558595945,-1.7288705003199831,-1.6728120721840924,-0.2768041138093716,-1.809584997808588,-1.7439096620552288,19.753611986776352,2.528327370244067,-950.842102,4133.081055,2.659057999999959
-134.4853057861328,7.814780712127685,18.69413185119629,-1.1490147113800049,-7.166065216064453,-6.821697235107422,0.8513532280921936,-0.907461166381836,2.164390087127685,0.4166666666666667,-0.4161806218231776,-2.2625900465836954,-2.087888317046847,-0.2802722856578981,-1.828439914863452,-1.7613087313639526,-0.0645237752938311,-0.4630641642089093,-0.4497007700772401,0.1462938079401643,0.212759849821269,19.766987999560467,3.575019836425781,-8.029346466064453,9.095163345336914,-0.272361450419628,-1.7894790264667495,-1.7263496465409467,0.0065459321473245,0.0311884080309053,0.0277375053457292,-1.3618072520981404,-8.947395132333748,-8.631748232704734,-0.2638507978142915,-1.7496993104967835,-1.6910441058374956,-0.2802722856578981,-1.828439914863452,-1.7613087313639526,19.768674290571564,2.554203109298997,-950.059204,4132.942871,1.4808349999998427
-134.49984741210938,7.825765132904053,18.678688049316406,-1.1388390064239502,-7.227008819580078,-6.787194728851318,0.1523150652647018,-0.6551864743232727,1.6251335144042969,0.425,-0.3934035254820849,-2.247219353919525,-1.9821489292570096,-0.2835506483702488,-1.8471667428127807,-1.777826639107761,-0.0668866973635832,-0.4784572203990158,-0.4645159920698047,0.1378263618298349,0.2835567950496654,19.784628939772848,-7.313232421875,4.140300750732422,1.2210845947265625,-0.2763014205308195,-1.8089725129299488,-1.7437061531949998,0.0060528305637435,0.0305627793407413,0.0272701061348194,-1.3815071026540977,-9.044862564649746,-8.718530765974998,-0.2682878891689844,-1.769829368591425,-1.709015022411221,-0.2835506483702488,-1.8471667428127807,-1.777826639107761,19.78714084567377,2.5793591267339964,-949.383606,4133.027832,0.3443609999999353
-134.51031494140625,7.831506252288818,18.67000198364257,-1.1463077068328855,-7.324146270751953,-6.761554718017578,0.5141544938087463,-0.734116792678833,0.5698398351669312,0.4333333333333333,-0.3884202527274705,-2.2674880734451213,-1.8865109968249776,-0.2867874838096444,-1.866062476758157,-1.7935475640813026,-0.0692765930619969,-0.494007741038667,-0.4794622217704822,0.1101912115546256,0.3672744965913415,19.836401622711392,-11.656494140625,3.076801300048828,-0.896244049072239,-0.2800013394589515,-1.828219134563296,-1.760612661529016,0.0055641906230873,0.0300468381191643,0.0265808968916421,-1.4000066972947578,-9.141095672816478,-8.80306330764508,-0.2725921656475947,-1.7898415405735002,-1.7264707110368356,-0.2867874838096444,-1.866062476758157,-1.7935475640813026,19.840107408894173,2.604083157784449,-948.650635,4132.938477,-0.7021480000000793
-134.51678466796875,7.832931041717529,18.667160034179688,-1.1787956953048706,-7.274734497070312,-6.792189598083496,0.9170792698860168,-0.9202682375907898,-0.2423106431961059,0.4416666666666666,-0.4082448403190106,-2.141590859240022,-1.8478288280751256,-0.2901895241456361,-1.883909067251824,-1.8089461376485956,-0.0716948390965438,-0.5097069832657656,-0.4945367729175539,0.0958933416790782,0.3039957924865019,19.82716286458496,5.929412841796982,-3.676185607910156,-3.89855861663821,-0.2835208111585598,-1.8470326398989605,-1.777107746851368,0.0052633334157545,0.0294535180036655,0.0256719168046013,-1.4176040557927991,-9.2351631994948,-8.88553873425684,-0.2768041138093716,-1.809584997808588,-1.7439096620552288,-0.2901895241456361,-1.883909067251824,-1.8089461376485956,19.82972506702008,2.627852633332257,-947.822815,4132.935547,-1.8171380000001136
-134.5246124267578,7.830421924591064,18.66786766052246,-1.1403706073760986,-7.25620174407959,-6.814620971679688,0.6723608374595642,-0.8384050726890564,-0.918859362602234,0.45,-0.3573342190676825,-2.0479305980479543,-1.801214599678735,-0.2931673093045335,-1.9009751555688903,-1.8239562593125849,-0.0741379000074149,-0.5255484428955063,-0.5097364084118254,0.1407017467017488,0.2899741810542778,19.824393933404288,2.223930358886612,-2.6917648315430758,4.611010551452637,-0.2867934502575922,-1.8653106714510208,-1.7931170663028393,0.0051283716816037,0.0287535902225725,0.024735440105698,-1.433967251287961,-9.326553357255104,-8.965585331514196,-0.2802722856578981,-1.828439914863452,-1.7613087313639526,-0.2931673093045335,-1.9009751555688903,-1.8239562593125849,19.827013815347986,2.650748960052721,-947.189758,4132.827148,-2.928100000000086
-134.53359985351562,7.824524879455566,18.66837501525879,-1.1316516399383545,-7.1740593910217285,-6.813483238220215,0.5617329478263855,-0.5883077383041382,-1.1493107080459597,0.4583333333333333,-0.3366540527180972,-1.8922853518715543,-1.7315703130262383,-0.2959727597438509,-1.91674420016782,-1.8383860119211368,-0.076604339671947,-0.5415213112302382,-0.5250562918445015,0.1579269944688702,0.2374919515637753,19.764394710626583,9.85708236694336,0.1365280151368253,1.0462760925292969,-0.2899335450747827,-1.8829715285118944,-1.808532522414276,0.004940494459621,0.0275386166457645,0.0239619167590996,-1.4496677253739136,-9.414857642559472,-9.04266261207138,-0.2835506483702488,-1.8471667428127807,-1.777826639107761,-0.2959727597438509,-1.91674420016782,-1.8383860119211368,19.766452429307684,2.6722970142210367,-946.504456,4132.779297,-3.8413080000000264
-134.54330444335938,7.815963268280029,18.66831016540528,-1.1225457191467283,-7.194572448730469,-6.842659950256348,0.458840548992157,-0.2644925713539123,-1.3696954250335691,0.4666666666666667,-0.315859822194616,-1.8405789967054969,-1.6927199028612296,-0.2986049249288061,-1.932082358473699,-1.852492011111647,-0.0790927140463537,-0.5576219975508523,-0.5404937252704319,0.1710954519298101,0.2369476947705879,19.79792065160313,-2.461566925048828,-3.501205444335937,1.0927104949951438,-0.2929444003864942,-1.899954651644078,-1.8234655968150533,0.0046572296409425,0.0260828497820546,0.0232985817201673,-1.4647220019324712,-9.49977325822039,-9.117327984075269,-0.2867874838096444,-1.866062476758157,-1.7935475640813026,-0.2986049249288061,-1.932082358473699,-1.852492011111647,19.800077777395263,2.693294226843681,-945.776245,4132.786621,-4.670044000000189
-134.5507354736328,7.805362701416016,18.671709060668945,-1.0697726011276243,-7.222278118133545,-6.810835838317871,0.6971426606178284,-0.4366330802440643,-1.791216492652893,0.475,-0.252040946320182,-1.796413136419292,-1.593604753240465,-0.3007052661481409,-1.94705246794386,-1.865772050721984,-0.0815985912642549,-0.5738474347837178,-0.5560418256931151,0.2046328086939836,0.2941101913956515,19.788217479050672,-3.3246803283691406,3.818893432617188,6.3327741622924805,-0.2957279568541935,-1.9161526498812187,-1.8379104941431892,0.0041934959850212,0.024894322938529,0.0224875949475745,-1.4786397842709678,-9.580763249406091,-9.189552470715949,-0.2901895241456361,-1.883909067251824,-1.8089461376485956,-0.3007052661481409,-1.94705246794386,-1.865772050721984,19.791460946309225,2.7134005077155154,-945.061096,4132.720703,-5.526976999999988
-134.5537567138672,7.7949371337890625,18.68111038208008,-1.055387020111084,-7.272782802581787,-6.802148818969727,1.1122084856033323,-0.9111238718032836,-2.318267583847046,0.4833333333333333,-0.2272915751500319,-1.7751401465536878,-1.518677797605708,-0.3025993626077245,-1.9618453024984737,-1.878427699035365,-0.0841202526193193,-0.5901961456378717,-0.5716953898517432,0.2067062237373588,0.3393517104616048,19.815925892431675,-6.060562133789063,1.0424423217773438,1.7262697219848366,-0.2982099245466112,-1.9317398969305488,-1.8518068064205435,0.0037444223966112,0.0240430228330878,0.0215635118700815,-1.491049622733056,-9.658699484652743,-9.259034032102717,-0.2931673093045335,-1.9009751555688903,-1.8239562593125849,-0.3025993626077245,-1.9618453024984737,-1.878427699035365,19.8199093343201,2.7329277315160065,-944.406738,4132.808594,-6.368530000000192
-134.55194091796875,7.784144878387451,18.693737030029297,-1.079847812652588,-7.139358997344971,-6.860657691955566,1.6576125621795654,-1.201512575149536,-2.577458143234253,0.4916666666666666,-0.2414135061371423,-1.5713929756966376,-1.5112286679312588,-0.304611141825534,-1.9749402439626125,-1.8910212712681256,-0.0866586788011987,-0.6066539810042268,-0.5874539004456443,0.2184236993411102,0.2002205848333228,19.765769430969435,16.01085662841797,-7.021064758300781,-2.9352951049804688,-0.3004986910508113,-1.946532914609293,-1.865219808811652,0.0033703912961103,0.0231187240144888,0.0207516161420913,-1.5024934552540563,-9.732664573046463,-9.32609904405826,-0.2959727597438509,-1.91674420016782,-1.8383860119211368,-0.304611141825534,-1.9749402439626125,-1.8910212712681256,19.767990246691003,2.751206710397436,-943.743835,4132.666992,-7.194212999999991
-134.55316162109375,7.7704033851623535,18.706296920776367,-0.9941943287849426,-7.038144111633301,-6.905395984649658,1.2734373807907104,-0.9005836248397827,-2.8643503189086914,0.5,-0.1460473879820144,-1.4025785841828808,-1.4898395654745622,-0.3058282033920508,-1.986628398830803,-1.9034366009804136,-0.0892072471627992,-0.6232092176611502,-0.6033158721204811,0.3242156103140073,0.1276993906938489,19.713886394136768,12.14578628540039,-5.368595123291016,10.278418064117432,-0.3024697797804513,-1.9605097543418897,-1.8782299266235072,0.0029125523023252,0.021687679120648,0.0201039362486053,-1.5123488989022564,-9.802548771709448,-9.391149633117536,-0.2986049249288061,-1.932082358473699,-1.852492011111647,-0.3058282033920508,-1.986628398830803,-1.9034366009804136,19.7169657822213,2.768265554274539,-943.161743,4132.700684,-7.878173000000061
-134.56002807617188,7.75230598449707,18.71784400939941,-0.929717183113098,-6.968555927276611,-6.94287109375,0.6338242292404175,-0.4954689145088196,-3.1133203506469727,0.5083333333333333,-0.0732291124871582,-1.2675550455691944,-1.461198525726883,-0.3064384459961105,-1.99719135754388,-1.9156132553614709,-0.0917609008794334,-0.6398524789740159,-0.6192793159151601,0.4026189773509365,0.0758400416829944,19.68222117984304,8.350582122802734,-4.497013092041016,7.737257480621351,-0.3040364839939122,-1.973531554155926,-1.890854175473472,0.0023702448027456,0.0198179749734813,0.0197160321075119,-1.520182419969561,-9.86765777077963,-9.45427087736736,-0.3007052661481409,-1.94705246794386,-1.865772050721984,-0.3064384459961105,-1.99719135754388,-1.9156132553614709,19.686484813828688,2.784286620294155,-942.654663,4132.664062,-8.470214000000169
-134.5732421875,7.731327533721924,18.727914810180664,-0.9642454385757446,-6.902969837188721,-6.873612880706787,-0.1247157230973243,-0.0803262442350387,-3.275651216506958,0.5166666666666666,-0.0997625127684826,-1.1383806652697397,-1.326798778706462,-0.3072698002691812,-2.0066778630877944,-1.9266699118506916,-0.0943214825483433,-0.6565747944997475,-0.6353348985139158,0.3528458292167792,0.0649280490459824,19.592566127658998,7.870330810546875,8.310985565185547,-4.143390655517592,-0.3053493908181202,-1.9854566331847128,-1.903033747699213,0.001817342968075,0.0177306709416548,0.0191496199729967,-1.5267469540906011,-9.927283165923564,-9.515168738496063,-0.3025993626077245,-1.9618453024984737,-1.878427699035365,-0.3072698002691812,-2.0066778630877944,-1.9266699118506916,19.59585066531788,2.798790404012921,-942.201477,4132.524414,-8.948486000000003
-134.59080505371094,7.707031726837158,18.736677169799805,-0.9979650974273682,-6.964980125427246,-6.888920307159424,-0.6016399264335632,0.2641339898109436,-3.4103944301605225,0.525,-0.1250024706889309,-1.137525640707956,-1.2781198103328748,-0.3083114875249223,-2.016157243427027,-1.937320910270132,-0.0968907449443843,-0.6733761048616395,-0.6514792394328336,0.3127969666640507,0.0890129029179089,19.6516634895953,-7.441234588623047,-1.8368911743164065,-4.046359062194824,-0.3064918158015598,-1.9963190213704236,-1.9148123899461664,0.0014050470973413,0.0162217594233431,0.0183255395612867,-1.5324590790077992,-9.981595106852115,-9.574061949730831,-0.304611141825534,-1.9749402439626125,-1.8910212712681256,-0.3083114875249223,-2.016157243427027,-1.937320910270132,19.65435430502699,2.8130336494491126,-941.883789,4132.476074,-9.33313000000021
-134.607666015625,7.682608604431152,18.74472618103028,-0.9997385144233704,-6.937699317932129,-6.808504104614258,-0.5311240553855896,0.3770159482955932,-3.4011223316192627,0.5333333333333333,-0.1180919835772517,-1.047774916158696,-1.1349584403242234,-0.309295587388066,-2.024888701061683,-1.946778897272834,-0.0994682081726182,-0.6902501773704868,-0.6677023969101072,0.2843725843392678,0.1226861611905154,19.57682944485748,3.2736968994140625,9.649944305419922,-0.2128100395202636,-0.3074287049140662,-2.0063087127902373,-1.9259639151471084,0.0013992876618591,0.0151061801595263,0.017156334777759,-1.537143524570331,-10.031543563951187,-9.629819575735542,-0.3058282033920508,-1.986628398830803,-1.9034366009804136,-0.309295587388066,-2.024888701061683,-1.946778897272834,19.57927911783042,2.825913319076123,-941.583435,4132.456543,-9.615600000000086
-134.62490844726562,7.6604228019714355,18.75140953063965,-1.044616460800171,-6.800046920776367,-6.738077640533447,-0.530483603477478,0.2634168267250061,-3.0545358657836914,0.5416666666666666,-0.1539896417469763,-0.8497307203762885,-1.003742502509252,-0.3105788344026242,-2.0319697903981524,-1.9551434181270777,-0.1020563651259734,-0.7071832589571381,-0.6839952587278328,0.2340790971215865,0.0595575222686746,19.43679655142995,16.518287658691406,8.451175689697266,-5.3853535652160645,-0.3083788311161809,-2.0153769911037074,-1.9363052785764412,0.0016340161807269,0.0138995908631614,0.0157051250769576,-1.5418941555809045,-10.076884955518535,-9.681526392882208,-0.3064384459961105,-1.99719135754388,-1.9156132553614709,-0.3105788344026242,-2.0319697903981524,-1.9551434181270777,19.43829725834666,2.8368902387852857,-941.309143,4132.499023,-9.811767000000145
-134.64630126953125,7.643389225006103,18.757930755615234,-1.111545205116272,-6.809247016906738,-6.616355419158936,-1.047161102294922,-0.1174156591296196,-2.640904664993286,0.55,-0.211094786844188,-0.8002934430424515,-0.8235200815887893,-0.3123379576263257,-2.0386389024235063,-1.962006085473651,-0.1046591814395261,-0.7241719164773339,-0.7003453094401133,0.1275273889568104,0.1254612534737194,19.367485702413937,-1.1040115356445312,14.6066665649413,-8.031449317932129,-0.3095587334422239,-2.023666500079633,-1.945583844598877,0.0019766623592336,0.0126452951687704,0.0140402682311164,-1.5477936672111194,-10.118332500398164,-9.727919222994386,-0.3072698002691812,-2.0066778630877944,-1.9266699118506916,-0.3123379576263257,-2.0386389024235063,-1.962006085473651,19.36831190874067,2.846589442417776,-941.13385,4132.529297,-9.982055000000173
-134.6670684814453,7.6316609382629395,18.76698303222656,-1.1794812679290771,-6.8117852210998535,-6.556817531585693,-0.9894010424613952,-0.8163257241249084,-2.35932731628418,0.5583333333333333,-0.2681767911599428,-0.7447527681280857,-0.7076616454507052,-0.3145727642193253,-2.04484517549124,-1.967903265852407,-0.1072806211413538,-0.7412122929397609,-0.7167445033222167,0.0415572591025742,0.1465168471885975,19.33681772209405,-0.3045845031738281,7.144546508789169,-8.152327537536621,-0.3110193262322527,-2.031299962560322,-1.9538305153992208,0.0024931611159976,0.011271509634369,0.0121336138953966,-1.5550966311612635,-10.15649981280161,-9.769152576996104,-0.3083114875249223,-2.016157243427027,-1.937320910270132,-0.3145727642193253,-2.04484517549124,-1.967903265852407,19.337417454504745,2.855344301388356,-940.9776,4132.439941,-10.198730000000069
-134.6829071044922,7.630625247955322,18.779205322265625,-1.2740764617919922,-6.677188873291016,-6.421754837036133,-0.4727747738361358,-1.9440821409225464,-1.7464936971664429,0.5666666666666667,-0.3506630487673428,-0.5538459578105979,-0.5185536959700983,-0.3174949562923865,-2.0494605584729952,-1.9722245466521575,-0.1099264124437904,-0.7582911309270358,-0.7331797078776514,-0.0726659971361399,0.1119210583288516,19.16036098750489,16.151561737060547,16.207523345947266,-11.351423263549805,-0.3128560199857455,-2.0379606255695157,-1.9608112426756252,0.003263341228384,0.009834516514477,0.0101368005594484,-1.5642800999287276,-10.189803127847576,-9.804056213378129,-0.309295587388066,-2.024888701061683,-1.946778897272834,-0.3174949562923865,-2.0494605584729952,-1.9722245466521575,19.16082565658215,2.861950609361534,-940.8302,4132.311035,-10.392700000000104
-134.69903564453125,7.63783073425293,18.793519973754883,-1.302305817604065,-6.717058181762695,-6.368987083435059,-0.5204172134399414,-2.8593297004699707,-1.1846455335617063,0.575,-0.3658744749406089,-0.5388448518062079,-0.4139410956720191,-0.3205439102502249,-2.053950932238047,-1.975674055782758,-0.1125976116958756,-0.7754073886956863,-0.7496436583425077,-0.1211348570124534,0.1674157256094801,19.15538206013796,-4.7843170166015625,6.332130432128906,-3.3875226974487305,-0.3151056845581773,-2.0437730718047886,-1.96659027437761,0.0039912280968791,0.0087000416826538,0.0081858011400796,-1.5755284227908868,-10.218865359023942,-9.83295137188805,-0.3105788344026242,-2.0319697903981524,-1.9551434181270777,-0.3205439102502249,-2.053950932238047,-1.975674055782758,19.15649664079056,2.8678826344767216,-940.704163,4132.200684,-10.594238000000132
-134.71131896972656,7.655658721923828,18.810583114624023,-1.3376600742340088,-6.6927409172058105,-6.355247974395752,-0.1196056753396987,-3.947627305984497,-0.5438030362129211,0.5833333333333334,-0.3878095948600255,-0.4601561756728483,-0.3495168336464793,-0.3237756568740584,-2.057785567035321,-1.9785866960631453,-0.115295742169826,-0.7925556017543139,-0.7661318808097005,-0.1532749886678779,0.1507859492833386,19.13336112410377,2.918071746826172,1.6486930847167969,-4.242510795593262,-0.3177450490524641,-2.0489362271322222,-1.971278929964824,0.0045706791028269,0.0075250350010001,0.006538262773455,-1.5887252452623208,-10.24468113566111,-9.85639464982412,-0.3123379576263257,-2.0386389024235063,-1.962006085473651,-0.3237756568740584,-2.057785567035321,-1.9785866960631453,19.134569175448345,2.872997986376109,-940.595398,4132.003906,-10.829101000000037
-134.72084045410156,7.681873798370361,18.82650756835937,-1.3549755811691284,-6.611318111419678,-6.29305362701416,0.2470877319574356,-4.600060939788818,0.3014667630195617,0.5916666666666667,-0.3914005727460143,-0.325881428200951,-0.2378680979683221,-0.3270373283136085,-2.060501245603662,-1.9805689302128813,-0.1180210532391061,-0.8097264454676778,-0.7826366218948079,-0.174649089562624,0.1312481707065375,19.03498138543529,9.770736694335938,7.463321685791016,-2.0778608322143555,-0.3206849231899207,-2.053308695768253,-1.9749914989126696,0.0049360902113951,0.006297359630984,0.0050595982811848,-1.6034246159496035,-10.266543478841266,-9.874957494563349,-0.3145727642193253,-2.04484517549124,-1.967903265852407,-0.3270373283136085,-2.060501245603662,-1.9805689302128813,19.036235046107908,2.8766772645831065,-940.566101,4131.788574,-10.988158999999996
-134.73406982421875,7.716517448425293,18.839427947998047,-1.3459975719451904,-6.646116256713867,-6.355666160583496,-0.1732802838087082,-5.019211292266846,1.2354129552841189,0.6,-0.3687695821816827,-0.3088369572221126,-0.2516037992957267,-0.3301104081651225,-2.0630748869138467,-1.9826656285403457,-0.1207719733071488,-0.8269187361919599,-0.7991588354659774,-0.1464696340872953,0.1219413561366122,19.10197180678992,-4.175777435302734,-7.513504028320312,1.0773611068725586,-0.3237924519790802,-2.0569546380527743,-1.9779439714502576,0.0050164118191884,0.005383070489748,0.0041067592535841,-1.618962259895401,-10.284773190263872,-9.889719857251288,-0.3174949562923865,-2.0494605584729952,-1.9722245466521575,-0.3301104081651225,-2.0630748869138467,-1.9826656285403457,19.10292255010848,2.8803148899363085,-940.532043,4131.447754,-11.243286000000126
-134.74331665039062,7.756019592285156,18.84825134277344,-1.3390591144561768,-6.642352104187012,-6.342576503753662,0.3945232331752777,-5.12282133102417,2.0264317989349365,0.6083333333333333,-0.3484540637790547,-0.253577208972902,-0.1897970127202084,-0.333014192029948,-2.0651880303219543,-1.984247270313014,-0.123547091574065,-0.8441286364446429,-0.8156942293852526,-0.1380678875324718,0.1333853483457568,19.08929647663296,0.4516983032226562,1.570758819580078,0.8326148986816406,-0.3268962991265925,-2.0601001324225665,-1.9803485161824288,0.0049464697569334,0.0044177663176253,0.0033753690892493,-1.6344814956329623,-10.300500662112832,-9.901742580912144,-0.3205439102502249,-2.053950932238047,-1.975674055782758,-0.333014192029948,-2.0651880303219543,-1.984247270313014,19.090261767862497,2.883251165338025,-940.549438,4131.143066,-11.521728000000167
-134.75445556640625,7.798093795776367,18.85067749023437,-1.2628886699676514,-6.651557445526123,-6.356693267822266,0.2446543872356414,-4.758484840393066,2.7450644969940186,0.6166666666666667,-0.2597473585201233,-0.2118482999388513,-0.1557653954392064,-0.335178753350949,-2.0669534328214447,-1.9855453152750075,-0.1263402478519896,-0.8613532483848215,-0.8322404403458776,-0.0575270917090261,0.1590212628378176,19.09531401820792,-1.1046409606933594,-1.694011688232422,9.140453338623049,-0.3298232677467373,-2.062700632539246,-1.9823227680808788,0.0045629137963156,0.0036540626743507,0.0027946490809451,-1.6491163387336865,-10.313503162696229,-9.911613840404394,-0.3237756568740584,-2.057785567035321,-1.9785866960631453,-0.335178753350949,-2.0669534328214447,-1.9855453152750075,19.096062803161363,2.885659628085194,-940.576843,4130.824707,-11.868652000000111
-134.76133728027344,7.84061861038208,18.852279663085938,-1.268646478652954,-6.787203788757324,-6.3651299476623535,0.7929654121398926,-4.769101619720459,2.8878512382507324,0.625,-0.2536958380636749,-0.2959422320074667,-0.1164372977839329,-0.337292885334813,-2.069419618088173,-1.9865156260898735,-0.1291510218964464,-0.8785984118688897,-0.8487947372299599,-0.0724944901601212,0.2496786364508874,19.197378949203287,-16.27756118774414,-1.0124015808105469,-0.6909370422363281,-0.3325267134388882,-2.065027442749816,-1.983908554086225,0.0040607642705262,0.0034396716860443,0.0023605344644094,-1.6626335671944412,-10.32513721374908,-9.919542770431123,-0.3270373283136085,-2.060501245603662,-1.9805689302128813,-0.337292885334813,-2.069419618088173,-1.9865156260898735,19.199139391960177,2.8883400732816984,-940.571167,4130.42627,-12.271118000000115
-134.75894165039062,7.885538101196289,18.85603141784668,-1.2356468439102173,-6.818037509918213,-6.342427730560303,1.848989486694336,-5.10795259475708,2.878476858139038,0.6333333333333333,-0.209243787530664,-0.274429478299476,-0.0466625271618648,-0.3390365835642352,-2.071706530407336,-1.9869044804828893,-0.1319763267594817,-0.8958626329556174,-0.8653522745673173,-0.0459451982498587,0.2983121059343496,19.198703161412023,-3.7000465393066406,2.7242660522460938,3.959956169128418,-0.3349265644890135,-2.067268499710551,-1.985175664140226,0.0035145362611742,0.0034035802861031,0.0017380405450338,-1.6746328224450675,-10.336342498552757,-9.92587832070113,-0.3301104081651225,-2.0630748869138467,-1.9826656285403457,-0.3390365835642352,-2.071706530407336,-1.9869044804828893,19.2010755988773,2.890450339945368,-940.555847,4130.055176,-12.632446000000073
-134.745361328125,7.930450916290283,18.863903045654297,-1.1993048191070557,-6.792077541351318,-6.306868076324463,3.14497971534729,-5.5002217292785645,2.5664825439453125,0.6416666666666666,-0.1621587165008862,-0.1967003827182454,0.0349109105909617,-0.3403879062017426,-2.073345700263321,-1.9866135562279643,-0.1348128926444962,-0.9131405137911452,-0.8819073875358837,-0.0121710200906773,0.3149058082358103,19.15065953277563,3.115196228027344,4.267158508300781,4.3610429763793945,-0.3369820640963376,-2.069322662380446,-1.98596524967775,0.0029543763687505,0.0033386184251034,0.0010877922690827,-1.6849103204816878,-10.34661331190223,-9.92982624838875,-0.333014192029948,-2.0651880303219543,-1.984247270313014,-0.3403879062017426,-2.073345700263321,-1.9869044804828893,19.15325231761125,2.891584296069808,-940.573547,4129.592773,-13.119506000000001
-134.72398376464844,7.980007171630859,18.87297821044922,-1.22033429145813,-6.667957305908203,-6.226510524749756,4.034972667694092,-5.953235626220703,2.828413963317871,0.65,-0.172693009383978,-0.0226920720758823,0.1597448217581059,-0.3418270146132757,-2.0735348008639534,-1.9852823493799805,-0.1376614510996069,-0.9304199704650116,-0.8984514071140502,-0.0323783805045253,0.2723936574583979,19.010274836492385,14.894428253173828,9.642906188964844,-2.523536682128933,-0.3387446286130031,-2.070992016488846,-1.9861722654911431,0.0026033501163034,0.0027972622599046,0.0007130550586676,-1.6937231430650157,-10.35496008244423,-9.930861327455716,-0.335178753350949,-2.0669534328214447,-1.9852823493799805,-0.3418270146132757,-2.0735348008639534,-1.9869044804828893,19.01225383859376,2.890975317271497,-940.606262,4129.120117,-13.596801000000141
-134.69747924804688,8.032567024230957,18.88095092773437,-1.2820433378219604,-6.705652236938477,-6.195089817047119,4.692771434783936,-6.151386260986328,3.213165044784546,0.6583333333333333,-0.2233257470868606,-0.0118283975241499,0.2341512035228161,-0.3436880625056662,-2.073633370843321,-1.9833310893506235,-0.1405255182871541,-0.9477002485553724,-0.914979166191972,-0.0960517096065786,0.2977930077852174,19.02361157623266,-4.5233917236328125,3.7704849243164062,-7.405085563659641,-0.3404464904439465,-2.072328004093221,-1.985729420306266,0.0024672926012492,0.0018056151995123,0.0014775356227405,-1.7022324522197327,-10.361640020466105,-9.92864710153133,-0.337292885334813,-2.069419618088173,-1.9833310893506235,-0.3436880625056662,-2.073633370843321,-1.9869044804828893,19.0261846939889,2.8899271705301963,-940.538269,4128.67334,-14.151123000000098
-134.6625213623047,8.089487075805664,18.88814926147461,-1.3432425260543823,-6.694671630859375,-6.064436435699463,5.690856456756592,-6.413600444793701,3.617870092391968,0.6666666666666666,-0.2725338112670714,0.047345775887222,0.4058867352558888,-0.3459591775995585,-2.073238822710928,-1.9799486998901576,-0.1434085114338171,-0.9649772387446304,-0.9314787386910568,-0.1837810121131167,0.3519531996472358,18.933742187080814,1.3176727294921875,15.67840576171875,-7.343902587890625,-0.3421797488968957,-2.073091845017772,-1.9844160350663231,0.0027282641591501,0.0007897153925235,0.0028681941669979,-1.7108987444844783,-10.36545922508886,-9.922080175331615,-0.3390365835642352,-2.071706530407336,-1.9799486998901576,-0.3459591775995585,-2.073633370843321,-1.9869044804828893,18.93790483981792,2.887594816236842,-940.487244,4128.328125,-14.776611000000003
-134.62896728515625,8.152015686035156,18.892723083496094,-1.4123144149780271,-6.685843467712402,-6.079418659210205,5.595531463623047,-6.699851512908936,4.355418682098389,0.675,-0.3286456807218725,0.1036118230677525,0.4304896096792134,-0.3486978916055741,-2.07237539085203,-1.9763612864761644,-0.1463143271971969,-0.9822470336683972,-0.947948416078358,-0.2313071597575715,0.3122724357421682,18.94802216232709,1.0593795776367188,-1.7978668212890625,-8.288626670837376,-0.3441120105051635,-2.0732256171067105,-1.982307396264978,0.0033057609841284,0.0004998341593921,0.0041641619026268,-1.7205600525258171,-10.366128085533552,-9.91153698132489,-0.3403879062017426,-2.07237539085203,-1.9763612864761644,-0.3486978916055741,-2.073633370843321,-1.9866135562279643,18.95200677871128,2.8848455617070727,-940.367065,4127.955078,-15.41479500000014
-134.59048461914062,8.217602729797363,18.89413452148437,-1.4439276456832886,-6.662156105041504,-6.103707790374756,6.210812091827393,-6.645856380462647,4.8509521484375,0.6833333333333333,-0.3465881075944192,0.1738793416104842,0.4456072735260941,-0.3515861258355276,-2.070926396338609,-1.9726478925301136,-0.1492442115791596,-0.9995047536378856,-0.964387148516109,-0.2380127302742407,0.2677057372296935,18.953094847078503,2.8424835205078125,-2.9146957397460938,-3.7935876846313743,-0.3463516544319204,-2.072741756321768,-1.979514263525408,0.003893123593346,0.0011292394152169,0.0051263052893359,-1.731758272159602,-10.36370878160884,-9.89757131762704,-0.3418270146132757,-2.070926396338609,-1.9726478925301136,-0.3515861258355276,-2.073633370843321,-1.9852823493799805,18.956479649551813,2.881612161765624,-940.267334,4127.571777,-16.04675300000008
-134.5572967529297,8.284896850585938,18.89132499694824,-1.411448359489441,-6.607919692993164,-6.162952423095703,5.677907943725586,-6.4699907302856445,5.3867506980896,0.6916666666666667,-0.300590301180893,0.2734611449640276,0.4259650404882098,-0.354091045012035,-2.068647553463909,-1.9690981838593784,-0.1521949702875932,-1.0167434832500848,-0.9807963000482705,-0.1693239635073059,0.2008526788500222,18.951649703782927,6.508369445800781,-7.109355926513672,3.897514343261719,-0.3488044605116723,-2.0717643068417595,-1.976277430421288,0.0041824083370419,0.0020283778366636,0.0056558483479846,-1.7440223025583617,-10.358821534208795,-9.881387152106438,-0.3436880625056662,-2.068647553463909,-1.9690981838593784,-0.354091045012035,-2.073633370843321,-1.9833310893506235,18.95347036555877,2.8778517728139223,-940.106689,4127.215332,-16.65087900000003
-134.53424072265625,8.347901344299316,18.887651443481445,-1.320127010345459,-6.664673805236816,-6.2739787101745605,4.447387218475342,-5.99503755569458,5.057338714599609,0.7,-0.1969388933167832,0.2615055365030825,0.3554658339307774,-0.3557322024563416,-2.0664683406597164,-1.9661359685766224,-0.1551594053080627,-1.0339640527555825,-0.9971807664530756,-0.0441328645651255,0.1982717565276595,19.0556563698964,-6.810493469238281,-13.32315444946289,10.958561897277832,-0.3512132885018074,-2.070331300805038,-1.9728384062664872,0.0039615014974378,0.002772345245729,0.0055207606022744,-1.756066442509037,-10.351656504025192,-9.864192031332436,-0.3459591775995585,-2.0664683406597164,-1.9661359685766224,-0.3557322024563416,-2.073238822710928,-1.9799486998901576,19.056738941559345,2.8744612451282228,-939.840759,4126.932617,-17.350097000000005
-134.5189666748047,8.404839515686035,18.885299682617188,-1.2715115547180176,-6.745461463928223,-6.43778133392334,3.5204081535339355,-5.633749485015869,4.465573310852051,0.7083333333333334,-0.1373082680865436,0.2261120559342719,0.2339882139903801,-0.3568764380237294,-2.0645840735269307,-1.964186066793369,-0.1581333756249271,-1.0511689200349736,-1.0135489836763536,0.0541890308666905,0.1657548230032287,19.21917687080644,-9.69451904296875,-19.65631484985352,5.833854675292969,-0.3533967405866415,-2.068600350968239,-1.9696858796471295,0.0032940189190975,0.0031756729094577,0.0049124783211982,-1.7669837029332076,-10.343001754841197,-9.848429398235648,-0.3486978916055741,-2.0645840735269307,-1.964186066793369,-0.3568764380237294,-2.07237539085203,-1.9763612864761644,19.219968020362472,2.871914882732907,-939.505188,4126.536133,-18.088867000000164
-134.5105743408203,8.452056884765625,18.884855270385746,-1.1350018978118896,-6.819008827209473,-6.548477649688721,2.6274185180664062,-4.931943416595459,3.4435136318206787,0.7166666666666667,0.008531253839862,0.1986900307722887,0.1673957941521369,-0.3568053442417305,-2.062928323270495,-1.9627911018421007,-0.1611067534936082,-1.068359989395561,-1.0299055761917044,0.2166787072091857,0.1909574300421184,19.32768122075035,-8.82568359375,-13.283557891845703,16.38115882873535,-0.3550182311138729,-2.066710937451932,-1.9669718427203169,0.0022246056975672,0.003178488186747,0.0039584307330064,-1.7750911555693645,-10.33355468725966,-9.834859213601584,-0.3515861258355276,-2.062928323270495,-1.9627911018421007,-0.3568764380237294,-2.070926396338609,-1.9726478925301136,19.329839000188077,2.8697617026682902,-939.176453,4126.269531,-18.780395
-134.51034545898438,8.485215187072754,18.8850154876709,-1.041020154953003,-6.969287395477295,-6.733126163482666,1.6697664260864258,-3.844171762466431,2.2204980850219727,0.725,0.1097888113708844,0.0958468545573438,0.0287897952002325,-0.3558904374803065,-2.062129599482517,-1.9625511868820995,-0.1640725071392774,-1.085544402724582,-1.046260169415722,0.3514062297150909,0.2091824461870186,19.54768114404433,-18.033428192138672,-22.15782165527344,11.277809143066406,-0.3558790934428286,-2.0649515780807137,-1.964952501590714,0.0011259950705399,0.0026529693549112,0.0027208757358698,-1.7793954672141432,-10.324757890403568,-9.82476250795357,-0.354091045012035,-2.062129599482517,-1.9625511868820995,-0.3568764380237294,-2.068647553463909,-1.9690981838593784,19.551958514258917,2.868909836450805,-938.878235,4126.082031,-19.36169400000017
-134.5125732421875,8.502126693725586,18.88929557800293,-0.929259479045868,-7.073050498962402,-6.817643165588379,1.27269446849823,-2.78515100479126,0.4575982987880707,0.7333333333333333,0.2269971816433686,0.0410718386998478,-0.0079844607705181,-0.3539987942999451,-2.061787334160018,-1.962617724055187,-0.167022497091777,-1.102725963842582,-1.0626153171161818,0.473167265714972,0.2644610668235054,19.66281675239894,-12.45157241821289,-10.142040252685549,13.411281108856189,-0.3558606433004107,-2.063579534219936,-1.963656409629876,0.0011627731112098,0.0019424642448023,0.0015393092519951,-1.7793032165020533,-10.317897671099676,-9.818282048149378,-0.3539987942999451,-2.061787334160018,-1.9625511868820995,-0.3568764380237294,-2.0664683406597164,-1.9661359685766224,19.670286971867743,2.8684752898437265,-938.536804,4125.773926,-20.03796299999999
-134.51913452148438,8.502336502075195,18.896129608154297,-0.8595343232154846,-7.165209293365479,-6.931453704833984,0.7385351657867432,-1.637377142906189,-1.1532937288284302,0.7416666666666667,0.300561831793059,-0.0010508375030511,-0.0729651948220881,-0.3514941123683363,-2.06179609113921,-1.963225767345371,-0.1699516146948465,-1.119907597935409,-1.07897553184406,0.5637543673345131,0.2792518032655607,19.7964044268424,-11.059055328369247,-13.657264709472656,8.36701869964601,-0.3550130252828095,-2.062645084315834,-1.9630743693836252,0.0022839647022303,0.0011792108408398,0.0006747736395724,-1.7750651264140478,-10.31322542157917,-9.815371846918127,-0.3514941123683363,-2.061787334160018,-1.9625511868820995,-0.3568764380237294,-2.0645840735269307,-1.964186066793369,19.80639868293631,2.868589661494888,-938.200745,4125.559082,-20.66809000000012
-134.52731323242188,8.488844871520996,18.905086517333984,-0.8606258630752563,-7.308306694030762,-6.920228004455566,0.4740298092365265,-0.6250641345977783,-2.533273458480835,0.75,0.3026671085854105,-0.0927423788138588,-0.0126407597618749,-0.3489718864634579,-2.062568944295992,-1.9633311070100532,-0.1728597137487086,-1.137095672471209,-1.095336624402477,0.5380440743025607,0.3865818311488666,19.8898136047148,-17.171688079833878,1.3470840454101562,-0.1309847831726074,-0.3534321149707553,-2.062242058469647,-1.9629033774269624,0.0032168557304452,0.0004990295099003,0.0003553623820914,-1.7671605748537764,-10.311210292348234,-9.814516887134811,-0.3489718864634579,-2.061787334160018,-1.9625511868820995,-0.3568053442417305,-2.062928323270495,-1.9633311070100532,19.90084476016946,2.868909385684649,-937.940186,4125.3125,-21.27685500000007
-134.5277557373047,8.468217849731445,18.92480087280273,-0.8945425152778625,-7.338315963745117,-6.927038192749023,1.2425081729888916,-0.9739044904708862,-4.008217811584473,0.7583333333333333,0.2721842890490102,-0.070513228281329,0.0290105105421512,-0.3467036840547161,-2.06315655453167,-1.9630893527555355,-0.1757489111158313,-1.1542886437589728,-1.1116957023421064,0.5011142830492613,0.3913471503712247,19.920918726921908,-3.601112365722656,-0.8172225952148438,-4.069998264312744,-0.3514117829333524,-2.0622877047218813,-1.9629630276096488,0.0037039520222513,0.0005811728606585,0.0003568332890972,-1.757058914666762,-10.311438523609407,-9.814815138048246,-0.3467036840547161,-2.061787334160018,-1.9625511868820995,-0.3558904374803065,-2.06315655453167,-1.9633311070100532,19.931062968176278,2.8688914618622734,-937.656311,4125.064941,-21.843994000000066
-134.52908325195312,8.443766593933105,18.952905654907227,-0.9192054867744446,-7.255647659301758,-6.86002254486084,0.9564995765686036,-1.3236156702041626,-5.063396453857422,0.7666666666666666,0.2513889401581717,0.0633130837003186,0.1433838221093211,-0.3446087762200647,-2.062628945500834,-1.9618944875712911,-0.1786206509176651,-1.171477218304813,-1.1280448230718672,0.4622924371085731,0.367791895806518,19.82000928185472,9.920196533203123,8.041877746582031,-2.959556579589844,-0.349155450681304,-2.0623875739255446,-1.962831687747488,0.003729759374426,0.000590047940673,0.0005906001643612,-1.74577725340652,-10.311937869627725,-9.814158438737438,-0.3446087762200647,-2.061787334160018,-1.9618944875712911,-0.3539987942999451,-2.06315655453167,-1.9633311070100532,19.828811187482614,2.867441953349429,-937.302856,4124.706055,-22.519226000000117
-134.53225708007812,8.418612480163574,18.98597526550293,-1.1236268281936646,-7.358108520507812,-6.87404727935791,0.6839256882667542,-1.7233130931854248,-5.507944583892822,0.775,0.0527036766055228,0.0115488433498889,0.1756819254011281,-0.3441695789150186,-2.062532705139585,-1.9604304715262817,-0.1814887307419569,-1.1886649908476428,-1.1443817436679196,0.2578736089193438,0.3638036114164238,19.932152556724155,-12.295303344726456,-1.6829681396484375,-24.5305609703064,-0.3471896076043187,-2.0625366481214584,-1.9623942372417065,0.0030709389773093,0.0004853570857899,0.001240814084673,-1.7359480380215937,-10.312683240607292,-9.811971186208533,-0.3441695789150186,-2.06179609113921,-1.9604304715262817,-0.3514941123683363,-2.06315655453167,-1.9633311070100532,19.93714015124491,2.8663184562273805,-937.031006,4124.461914,-23.085144000000128
-134.5410919189453,8.399796485900879,19.02693748474121,-1.1459052562713623,-7.08311128616333,-6.85858678817749,-0.1646226793527603,-2.887134075164795,-5.646862983703613,0.7833333333333333,0.0379937594370718,0.3351613800548474,0.2368729131550253,-0.343852964253043,-2.059739693639128,-1.9584565305833237,-0.1843541721107323,-1.2058294882946354,-1.160702214756114,0.2638503130061026,0.175400646847962,19.730856550968745,32.999668121337784,1.8552589416503904,-2.6734113693237305,-0.3456613779812601,-2.062125368621442,-1.961440389889297,0.0021592628079754,0.00135748495383,0.0020262925459181,-1.7283068899063003,-10.31062684310721,-9.807201949446483,-0.343852964253043,-2.059739693639128,-1.9584565305833237,-0.3489718864634579,-2.06315655453167,-1.9633311070100532,19.73340017861834,2.8629206151695303,-936.796875,4124.17627,-23.525024000000144
-134.57281494140625,8.379712104797363,19.06930351257324,-1.096560835838318,-7.292027473449707,-7.057194709777832,-2.9033610820770264,-2.9345078468322754,-5.848434448242188,0.7916666666666666,0.094582645530761,0.173693582625539,0.0849641717221141,-0.3430647755402867,-2.058292247117248,-1.9577484958189724,-0.1872130452402347,-1.2229819236872792,-1.1770167855546054,0.3427999450892532,0.214146500032319,20.00885959243124,-25.069942474365234,-23.832950592041016,5.921330451965305,-0.3444799557966259,-2.0612700291856934,-1.960323867651081,0.0013650777843826,0.0021336058055908,0.0022497559301061,-1.7223997789831291,-10.306350145928466,-9.801619338255405,-0.3430647755402867,-2.058292247117248,-1.9577484958189724,-0.3467036840547161,-2.06315655453167,-1.9630893527555355,20.012941630741267,2.8613003316046584,-936.615723,4123.875,-23.947998000000098
-134.60585021972656,8.350253105163574,19.10903549194336,-1.0427745580673218,-7.417819499969482,-7.368585586547852,-3.046326398849488,-1.8849002122879028,-6.457169055938721,0.8,0.1546501943678018,0.0975728281003105,-0.1760108031625815,-0.341776023920555,-2.057479140216412,-1.959215252511994,-0.190061178772906,-1.2401275831890826,-1.1933435793255387,0.4720108446535522,0.1242548293167689,20.30615381743625,-15.095043182373049,-37.36690521240234,6.454353332519558,-0.3434944237697936,-2.060134546322641,-1.9595490476023727,0.0011139639552856,0.0023756235796923,0.0016450680916333,-1.7174721188489683,-10.300672731613208,-9.797745238011863,-0.341776023920555,-2.057479140216412,-1.9577484958189724,-0.3446087762200647,-2.062628945500834,-1.9618944875712911,20.31201901233504,2.861565248011697,-936.411743,4123.567871,-24.31585700000005
-134.66061401367188,8.307289123535156,19.140623092651367,-0.8123731017112732,-7.125006675720215,-7.478183269500732,-5.474223136901856,-0.0875750705599784,-6.906213283538818,0.8083333333333333,0.3888502568001984,0.4380270917541695,-0.2322594122118326,-0.3385356051138867,-2.053828914451794,-1.9611507476137595,-0.1928823088155217,-1.2572428241428475,-1.20968650222232,0.7517475608689935,-0.0681740087547596,20.143398429700664,35.13753890991211,-13.151721954345703,27.64817476272583,-0.342279789548558,-2.0583745401128337,-1.959400299610866,0.0022877435606108,0.0031868952880187,0.0013945178878585,-1.7113989477427902,-10.291872700564168,-9.79700149805433,-0.3385356051138867,-2.053828914451794,-1.9577484958189724,-0.3441695789150186,-2.062532705139585,-1.9611507476137595,20.157536367036755,2.859883183039836,-936.236633,4123.199707,-24.610901000000126
-134.74658203125,8.25141716003418,19.163780212402344,-0.5860955715179443,-7.528228282928467,-7.73843240737915,-9.103069305419922,1.7527951002120972,-7.324698448181152,0.8166666666666667,0.6150094072685797,0.0827734730321809,-0.4366838546895968,-0.3334105267199819,-2.053139135509859,-1.9647897797361729,-0.1956607298715216,-1.274352316938763,-1.226059750386788,0.9799119786673482,0.1326439881823464,20.57676568468341,-48.38659286499024,-31.22989654541016,27.153303623199463,-0.3401279791095507,-2.056495826186888,-1.960272161252844,0.0042683767652977,0.0028764779330191,0.0028268024687899,-1.7006398955477535,-10.28247913093444,-9.80136080626422,-0.3334105267199819,-2.053139135509859,-1.9577484958189724,-0.343852964253043,-2.059739693639128,-1.9647897797361729,20.600512322655995,2.861283237927624,-936.165955,4122.812988,-24.844909000000143
-134.83204650878906,8.18088436126709,19.185043334960938,-0.442791074514389,-7.866402149200439,-7.933739185333252,-8.978097915649414,3.1296119689941406,-8.387767791748047,0.825,0.755046371700986,-0.2017866705076088,-0.5729895668865437,-0.3271184736224737,-2.0548206910974227,-1.9695646927935604,-0.1983867171517088,-1.2914758226979082,-1.2424727894934011,1.113961694800715,0.3025064607331947,20.9315171336126,-40.58086395263661,-23.436813354492188,17.196539640426643,-0.3367810809834368,-2.055512025678547,-1.962493793694892,0.0065619974894894,0.0022660861366992,0.0047523579136977,-1.6839054049171842,-10.277560128392736,-9.81246896847446,-0.3271184736224737,-2.053139135509859,-1.9577484958189724,-0.3430647755402867,-2.058292247117248,-1.9695646927935604,20.963321071122927,2.86504444074541,-936.183899,4122.365234,-25.030761000000098
-134.90817260742188,8.092787742614746,19.209367752075195,-0.3737521767616272,-7.885334491729736,-8.048323631286621,-7.934702396392822,4.401179313659668,-10.154252052307127,0.8333333333333334,0.8190217570211342,-0.1647505004011007,-0.6266537475069383,-0.3202932923139642,-2.0561936119340984,-1.974786807356118,-0.2010558279209919,-1.3086107694640257,-1.2589293462213689,1.1921983207520213,0.2742183484855329,21.017014387042316,-2.271881103515732,-13.750133514404297,8.284667730331414,-0.3322267843381724,-2.0550922986419176,-1.965901456002321,0.0086731411908882,0.0017603025425268,0.0063419071243607,-1.6611339216908618,-10.275461493209589,-9.829507280011605,-0.3202932923139642,-2.053139135509859,-1.959215252511994,-0.341776023920555,-2.057479140216412,-1.974786807356118,21.05258716366693,2.868850448763003,-936.277832,4121.854492,-25.159851000000117
-134.98011779785156,7.991749286651611,19.240089416503903,-0.3117722570896148,-8.052255630493164,-8.066434860229492,-7.503000259399414,4.9408721923828125,-11.762675285339355,0.8416666666666667,0.8748435624424088,-0.2748143547843815,-0.5834381289053079,-0.3130029292936108,-2.0584837315573017,-1.9796487917636625,-0.2036641856651053,-1.3257648005603364,-1.275426419486066,1.2092185973575098,0.4072349531154375,21.14028437905205,-20.030536651611328,-2.1733474731445312,7.437590360641487,-0.3264721654127834,-2.055293216910095,-1.9699881638526544,0.010169610904045,0.0021211803276883,0.0074440775460627,-1.6323608270639174,-10.276466084550476,-9.849940819263272,-0.3130029292936108,-2.053139135509859,-1.9611507476137595,-0.3385356051138867,-2.0584837315573017,-1.9796487917636625,21.178755240816837,2.8730359283454465,-936.425354,4121.534668,-25.19659400000012
-135.03704833984375,7.877541542053223,19.28009033203125,-0.3311504423618316,-8.058408737182617,-8.094340324401855,-5.881119251251221,5.316773414611816,-13.670281410217283,0.85,0.8489679863273495,-0.223338159286869,-0.5503464106061893,-0.3059281960742163,-2.060344882884692,-1.984235011852047,-0.2062135872990571,-1.3429343412510422,-1.2919617112514998,1.1739469736552666,0.3915596676307115,21.16933478721118,-0.738372802734375,-3.3486557006835938,-2.325382232666016,-0.3199506836048494,-2.0565964105966748,-1.974605016700312,0.0109266122112991,0.0028671066616068,0.0077452124422263,-1.599753418024247,-10.282982052983376,-9.87302508350156,-0.3059281960742163,-2.053139135509859,-1.9647897797361729,-0.3334105267199819,-2.060344882884692,-1.984235011852047,21.205475844774124,2.8767693129345377,-936.613892,4121.102051,-25.226867000000084
-135.0772247314453,7.752431392669678,19.329980850219727,-0.4582368433475494,-8.087077140808105,-8.026103019714355,-3.98736834526062,5.395703315734863,-15.407554626464844,0.8583333333333333,0.7166429808505945,-0.1947795547483739,-0.4221688262480052,-0.2999561712337946,-2.0619680458409286,-1.9877530854041137,-0.2087132220593387,-1.3601174082997165,-1.308526320296534,1.002478710004472,0.4136170991380088,21.16134726366604,-3.4402084350585938,8.1884765625,-15.250368118286133,-0.3132598125076119,-2.058362192662889,-1.9791976778339,0.0108666667582278,0.0029237384065925,0.0072633225117486,-1.5662990625380595,-10.291810963314443,-9.8959883891695,-0.2999561712337946,-2.0548206910974227,-1.9695646927935604,-0.3271184736224737,-2.0619680458409286,-1.9877530854041137,21.189116562098043,2.8797305872709464,-936.906433,4120.591797,-25.255310000000122
-135.10452270507812,7.621756076812744,19.38869857788086,-0.5648704767227173,-8.002676963806152,-7.8614983558654785,-2.6048402786254883,5.157618999481201,-16.628507614135742,0.8666666666666667,0.6067551764386845,-0.0543166523169373,-0.2002974613865733,-0.2948998780968056,-2.0624206846102364,-1.9894222309156688,-0.2111707210434788,-1.3773042473381352,-1.325104838887498,0.8353651337114215,0.4215176187314892,21.003281986632004,10.128021240234377,19.752559661865234,-12.796036005020149,-0.3068160934024783,-2.0598821913654515,-1.983169185458322,0.0101212018787383,0.0025773110187894,0.0059980441920469,-1.5340804670123915,-10.299410956827256,-9.91584592729161,-0.2948998780968056,-2.0561936119340984,-1.974786807356118,-0.3202932923139642,-2.0624206846102364,-1.9894222309156688,21.024113922339325,2.8806849586983896,-937.19104,4120.217285,-25.26403800000014
-135.1183624267578,7.492564678192139,19.45899772644043,-0.7373395562171936,-7.78497838973999,-7.669009208679199,-1.1269882917404177,4.040570259094238,-17.468719482421875,0.875,0.4333825824379601,0.2162103571615352,0.0457576883409291,-0.2912883565764892,-2.0606189316338903,-1.989040916846161,-0.2135981240149495,-1.3944760717684177,-1.341680179861216,0.6193940449946765,0.3297523426224961,20.740273317819995,26.123828887939453,23.09869766235352,-20.69628953933716,-0.3010151062549833,-2.06076725530541,-1.9860200073563303,0.0086742920588817,0.001548435134497,0.0041074072080449,-1.505075531274917,-10.30383627652705,-9.930100036781653,-0.2912883565764892,-2.0584837315573017,-1.9796487917636625,-0.3130029292936108,-2.0624206846102364,-1.9894222309156688,20.752140200189373,2.878764154454693,-937.567749,4119.648438,-25.255005000000097
-135.119140625,7.368894577026367,19.53447723388672,-0.9324111938476562,-7.617287635803223,-7.640974521636963,0.3492885529994964,3.154662609100342,-17.447982788085938,0.8833333333333333,0.2404843811575829,0.4328185526363359,0.1248396806927312,-0.2892843200668427,-2.0570121103619208,-1.9880005861737216,-0.2160088266821732,-1.411617839354767,-1.3582468514126635,0.4307603984053921,0.1588652249085056,20.62971166532448,20.12289047241211,3.36416244506836,-23.40859651565552,-0.2962713844096297,-2.0604729310663337,-1.9876903662383427,0.0067520798563686,0.0021239176368724,0.0020532283263716,-1.4813569220481486,-10.302364655331669,-9.938451831191712,-0.2892843200668427,-2.0570121103619208,-1.984235011852047,-0.3059281960742163,-2.0624206846102364,-1.9894222309156688,20.63481999133854,2.875261826449758,-937.933044,4119.185059,-25.26318300000014
-135.1119842529297,7.250530242919922,19.611040115356445,-1.0777103900909424,-7.23174524307251,-7.604502201080322,1.334207534790039,2.592507123947144,-17.083574295043945,0.8916666666666666,0.1001803605938056,0.8619831958123667,0.2111767675351492,-0.288449483728561,-2.0498289170634845,-1.9862407797775956,-0.2184125723799112,-1.428699746996963,-1.37479885791081,0.3217877555066444,-0.1433892475054945,20.353431359664324,46.26508712768555,4.376678466796875,-17.435903549194336,-0.2927756419404986,-2.058369737902092,-1.988091519823452,0.0047220062270685,0.0052250749955932,0.0012470156593764,-1.4638782097024932,-10.29184868951046,-9.94045759911726,-0.288449483728561,-2.0498289170634845,-1.9862407797775956,-0.2999561712337946,-2.0624206846102364,-1.9894222309156688,20.35647994984549,2.868824520451616,-938.389587,4118.601562,-25.355224000000135
-135.12063598632812,7.139699459075928,19.67341423034668,-0.9953293204307556,-6.862395763397217,-7.639294624328613,-0.3598416745662689,3.1561098098754883,-15.258596420288086,0.9,0.1880137660922963,1.2680020909834573,0.2256053215838269,-0.2868827023444585,-2.039262232971956,-1.9843607354310635,-0.220803261566115,-1.4456935989383957,-1.3913351973727357,0.4479394993024392,-0.4003246138993229,20.10956643919385,44.32193756103516,-4.175090789794922,9.885728359222412,-0.2901609481626314,-2.0538285753282977,-1.987413049828842,0.003089214690844,0.0094636643519109,0.0021049227347627,-1.4508047408131572,-10.269142876641489,-9.93706524914421,-0.2868827023444585,-2.039262232971956,-1.9843607354310635,-0.2948998780968056,-2.0624206846102364,-1.9894222309156688,20.118538017556855,2.859821614725425,-938.69519,4118.145508,-25.472778000000062
-135.1416473388672,7.039578914642334,19.71608543395996,-0.9538364410400392,-6.760782241821289,-7.622513771057129,-1.5055664777755735,3.890111207962036,-12.678855895996094,0.9083333333333332,0.233836332323128,1.401785254601724,0.2911336852079289,-0.2849340662417658,-2.0275806891836083,-1.981934621387664,-0.2231777121181297,-1.4625901046815923,-1.407851319217633,0.4794790108500786,-0.4487408873771419,20.02221955118905,12.193622589111328,2.013702392578125,4.979145526885973,-0.2881677857916235,-2.046860576242972,-1.985915527923241,0.0024068831573301,0.013514861271473,0.0028498381153125,-1.4408389289581174,-10.23430288121486,-9.929577639616204,-0.2849340662417658,-2.0275806891836083,-1.981934621387664,-0.2912883565764892,-2.0606189316338903,-1.989040916846161,20.032986403975485,2.8496202758807017,-938.984314,4117.498535,-25.661987000000067
-135.17922973632812,6.954771518707275,19.737483978271484,-0.9985039234161376,-6.789593696594238,-7.564836502075195,-3.208695650100708,4.3925981521606445,-9.591609001159668,0.9166666666666666,0.1934570694311641,1.404039848116656,0.3963076799050071,-0.2833219239965061,-2.0158803571159694,-1.978632057388456,-0.225538728151434,-1.4793891076575587,-1.42433991969587,0.3984949685085951,-0.4056835486166621,20.00798835905857,-3.4573745727539062,6.921272277832031,-5.360097885131809,-0.2865744992756268,-2.0379128613393878,-1.9838337560317,0.0024608916593328,0.016588998800889,0.003677578184195,-1.4328724963781343,-10.189564306696935,-9.9191687801585,-0.2833219239965061,-2.0158803571159694,-1.978632057388456,-0.2892843200668427,-2.0570121103619208,-1.9880005861737216,20.01606793448124,2.8388430293604405,-939.279297,4117.112793,-25.860778000000096
-135.2283477783203,6.888082981109619,19.748300552368164,-1.0384515523910522,-6.929028034210205,-7.4571661949157715,-4.406955718994141,3.728652000427246,-7.15772008895874,0.925,0.1584434944987884,1.2966100834026753,0.5494665352362871,-0.2820015615423495,-2.0050752730876136,-1.97405316959482,-0.2278887411642869,-1.496098068266622,-1.440790362775827,0.2905696139798235,-0.2493927837580497,20.035092240315976,-16.732120513916016,12.92043685913086,-4.793715476989759,-0.2851179475707282,-2.027525493884526,-1.98104427271592,0.0026069554792232,0.0178522995761056,0.0048345019644011,-1.425589737853641,-10.13762746942263,-9.9052213635796,-0.2820015615423495,-2.0050752730876136,-1.97405316959482,-0.288449483728561,-2.0498289170634845,-1.9862407797775956,20.038751172144647,2.827850358107205,-939.529602,4116.46582,-26.085266000000047
-135.27633666992188,6.840024948120117,19.75725173950196,-1.0960973501205444,-7.048736572265625,-7.386465549468994,-4.267485618591309,2.3190743923187256,-5.423866271972656,0.9333333333333332,0.1064815087557453,1.2106028029029217,0.6635535008028253,-0.2811142156360517,-1.994986916396756,-1.9685235570881296,-0.2302313596279206,-1.512722959236595,-1.4571947257515614,0.1840633373882464,-0.135324673147858,20.07614815304628,-14.36502456665039,8.484077453613281,-6.917495727539063,-0.2836508939522263,-2.0165570937511808,-1.9775008281780264,0.0023105395537955,0.017568478396135,0.0063339220708714,-1.418254469761132,-10.082785468755905,-9.887504140890131,-0.2811142156360517,-1.994986916396756,-1.9685235570881296,-0.2868827023444585,-2.039262232971956,-1.9843607354310635,20.07744796388217,2.816750431550125,-939.80481,4116.037598,-26.392822000000137
-135.32723999023438,6.808112144470215,19.76741409301757,-1.2351608276367188,-6.953165054321289,-7.287834644317627,-4.605388164520264,0.830528736114502,-4.156063556671143,0.9416666666666668,-0.0253186961817994,1.339574589876106,0.8035614268162661,-0.2813252047709,-1.983823794814455,-1.961827211864661,-0.2325757363343448,-1.529254824193382,-1.4735432858504336,0.0299240960729242,-0.179592556971272,19.956502422393346,11.468582153320312,11.835708618164062,-16.687617301940918,-0.2825393944375146,-2.0054694061196807,-1.9729941234647463,0.0015922830265557,0.0171454597474027,0.0080238123600051,-1.4126969721875733,-10.027347030598404,-9.864970617323731,-0.2811142156360517,-1.983823794814455,-1.961827211864661,-0.2849340662417658,-2.0275806891836083,-1.981934621387664,19.95733293486473,2.8041873562449573,-940.007019,4115.554688,-26.64257800000007
-135.38192749023438,6.793901443481445,19.77849578857422,-1.3525493144989014,-6.97187089920044,-7.250457286834717,-5.102343559265137,-0.7482303380966187,-2.7503159046173096,0.95,-0.1333739507377884,1.3531176969192815,0.8806035718489227,-0.2824366543603816,-1.9725478140067945,-1.95448884876592,-0.2349293751206813,-1.5456927226434387,-1.489830692923483,-0.1002196785504705,-0.1741349435534795,19.957173862162257,-2.244701385498153,4.485282897949219,-14.086618423461914,-0.2820399120612378,-1.994462831084317,-1.9675049689403972,0.0008902457805221,0.0170665321482405,0.0096096938135753,-1.410199560306189,-9.972314155421588,-9.837524844701989,-0.2811142156360517,-1.9725478140067945,-1.95448884876592,-0.2833219239965061,-2.0158803571159694,-1.978632057388456,19.958185176190437,2.791190069167558,-940.249817,4114.897461,-26.9608760000001
-135.43417358398438,6.792691707611084,19.787736892700195,-1.4175716638565063,-6.997000694274902,-7.219096183776855,-4.755026340484619,-1.7108259201049805,-1.4879052639007568,0.9583333333333334,-0.1876354344139861,1.3601127612751425,0.9504982181600612,-0.2840002829804982,-1.961213540996168,-1.946568030281253,-0.2372960441455188,-1.5620361688184068,-1.5060520931758268,-0.1782740850812817,-0.1500816824713774,19.960299093506997,-3.0155754089354403,3.763332366943466,-7.802681922912598,-0.2821755838580362,-1.9835294678603572,-1.9610921635189569,0.0011486530759576,0.0174225341969936,0.0109351245647021,-1.4108779192901812,-9.917647339301787,-9.805460817594785,-0.2811142156360517,-1.961213540996168,-1.946568030281253,-0.2840002829804982,-2.0050752730876136,-1.97405316959482,19.961659401539773,2.7777944147529654,-940.484131,4114.366211,-27.304992000000084
-135.48348999023438,6.800776481628418,19.79494285583496,-1.4733017683029177,-7.0858259201049805,-7.263514041900635,-4.4008073806762695,-2.320009469985962,-0.5371817946434021,0.9666666666666668,-0.2317095223353884,1.3038801454160085,0.9441813190801538,-0.2859311956666264,-1.9503478731177013,-1.938699852622252,-0.2396788041094074,-1.5782890677610544,-1.522207925281012,-0.2323338526383891,-0.1261551405342197,20.06028239458986,-10.659027099609377,-5.330142974853622,-6.687612533569363,-0.2829615106828916,-1.972583987866375,-1.954021500124443,0.0020164044098317,0.0176915066957497,0.0118507837460832,-1.414807553414458,-9.862919939331874,-9.770107500622215,-0.2811142156360517,-1.9503478731177013,-1.938699852622252,-0.2859311956666264,-1.994986916396756,-1.9685235570881296,20.062024421509832,2.7648093231518933,-940.699585,4113.706055,-27.665039000000093
-135.52052307128906,6.814877033233643,19.79702377319336,-1.49187970161438,-7.218272686004639,-7.307431697845459,-2.828246831893921,-2.4225172996521,0.4066644012928009,0.975,-0.2381359542850241,1.2053943866925376,0.9385698432694528,-0.2879156619523349,-1.940302919895264,-1.930878437261673,-0.2420781012923435,-1.5944582587601817,-1.538298578924859,-0.257256034500612,-0.0604326512771722,20.18583205625741,-15.893611907958984,-5.270118713378906,-2.2293519973754883,-0.2843217999461482,-1.9616471885660764,-1.946492476159152,0.0026524860220057,0.0172776292109612,0.012284390448127,-1.421608999730741,-9.808235942830382,-9.73246238079576,-0.2813252047709,-1.940302919895264,-1.930878437261673,-0.2879156619523349,-1.983823794814455,-1.961827211864661,20.18756172934356,2.752446618707367,-940.986328,4113.126953,-28.03186000000005
-135.5493927001953,6.828956127166748,19.78930854797364,-1.504174828529358,-7.297222137451172,-7.377474308013916,-1.7325981855392456,-1.5875447988510132,1.231724500656128,0.9833333333333332,-0.2381550142659552,1.1616786875635094,0.9072521624475725,-0.2899002870712179,-1.930622264165568,-1.92331800257461,-0.244493937017937,-1.610546777628228,-1.5543262289463144,-0.2588003171225765,-0.0476838231328267,20.29188287724886,-9.473934173583984,-8.405113220214844,-1.4754152297973366,-0.2860368164062118,-1.9510068824362992,-1.9387906343011416,0.0029822917805163,0.0165735435354841,0.0123383068273356,-1.430184082031059,-9.755034412181496,-9.693953171505708,-0.2824366543603816,-1.930622264165568,-1.92331800257461,-0.2899002870712179,-1.9725478140067945,-1.95448884876592,20.293589186122716,2.7405285333970424,-941.315002,4112.530273,-28.27679400000011
-135.5726318359375,6.836045265197754,19.77047538757324,-1.4772783517837524,-7.526612281799316,-7.527520656585693,-0.875328004360199,-0.0766249820590019,1.5968939065933228,0.9916666666666668,-0.1992429033681293,0.9696013137816424,0.7972403594610462,-0.2915606445992856,-1.9225422532173877,-1.9166743329124345,-0.2469236090562644,-1.6265679630717065,-1.5702985150539182,-0.2237847505524269,0.0319304403248877,20.554520084066404,-27.526817321777344,-18.00556182861328,3.227577209472656,-0.2878616144539926,-1.9410057702784176,-1.931227731130444,0.0030198645926173,0.0153691374429637,0.0118916419109085,-1.439308072269963,-9.705028851392088,-9.65613865565222,-0.2840002829804982,-1.9225422532173877,-1.9166743329124345,-0.2915606445992856,-1.961213540996168,-1.946568030281253,20.55576306182498,2.730351043974138,-941.647339,4111.978027,-28.520263000000114
-135.58474731445312,6.82741641998291,19.740982055664062,-1.4353398084640503,-7.660961151123047,-7.661184310913086,0.5896653532981873,2.171472549438477,1.1739517450332642,1.0,-0.1460047968572859,0.8750931750960538,0.7054455801188215,-0.292777351239763,-1.915249810091587,-1.9107956197447775,-0.2493634203165957,-1.6425283781558029,-1.5862218118851246,-0.1664736924891221,0.0575672614350886,20.73763669283889,-16.121864318847656,-16.03963851928711,5.032625198364258,-0.2896170281058455,-1.9318130240975016,-1.9240732490231491,0.0027534310679673,0.0139402664877082,0.0110889349789671,-1.448085140529228,-9.659065120487508,-9.620366245115749,-0.2859311956666264,-1.915249810091587,-1.9107956197447775,-0.292777351239763,-1.9503478731177013,-1.938699852622252,20.73838477519544,2.721220371982148,-942.086304,4111.338867,-28.654968000000054
-135.59002685546875,6.798824787139893,19.6993408203125,-1.4088568687438965,-7.754544258117676,-7.59113597869873,1.605333685874939,4.882546424865723,0.5423941612243652,1.0083333333333333,-0.1089291228855755,0.8227107841478096,0.8173238634340754,-0.2936850939304762,-1.9083938868903552,-1.9039845875494936,-0.2518107960993497,-1.658431660546556,-1.6020883501147036,-0.1844818271664806,0.1753590296601202,20.749762129085305,-11.229972839355469,8.405799865722763,3.177952766418457,-0.2911678077586155,-1.923422226852032,-1.917130196008598,0.002305685457217,0.0125520126498276,0.0104933881207942,-1.4558390387930775,-9.61711113426016,-9.58565098004299,-0.2879156619523349,-1.9083938868903552,-1.9039845875494936,-0.2936850939304762,-1.940302919895264,-1.930878437261673,20.751323156547407,2.7117108016054083,-942.579224,4110.71582,-28.81073000000015
-135.58575439453125,6.751889228820801,19.64835357666016,-1.286935567855835,-7.698159694671631,-7.617471218109131,2.852644920349121,7.245922565460205,-0.2164147049188614,1.0166666666666666,0.0222090251779385,0.9200345206336866,0.8318735263986197,-0.29350001872066,-1.900726932551741,-1.8970523081628388,-0.2542566295886886,-1.6742710516511536,-1.617897119349394,-0.0610123244575521,0.1563558728491446,20.71484130725845,6.766147613525391,-3.160228729248153,14.630556106567385,-0.2922846791122805,-1.915507029383328,-1.9103649701888308,0.0015724574106689,0.0116948590966246,0.0103163803953518,-1.4614233955614029,-9.577535146916638,-9.551824850944154,-0.2899002870712179,-1.900726932551741,-1.8970523081628388,-0.2936850939304762,-1.930622264165568,-1.92331800257461,20.71552123523835,2.7014278804037195,-943.123901,4110.143066,-28.931274000000144
-135.57171630859375,6.688825130462647,19.591142654418945,-1.3990670442581177,-7.833061695098877,-7.550059795379639,4.13371467590332,9.136558532714844,-1.03079354763031,1.025,-0.0809007306788651,0.8261599576222043,0.9392540428114816,-0.2941741914763173,-1.8938422662382224,-1.8892251911394096,-0.2567080811843246,-1.6900530705364722,-1.633640662608889,-0.2192362481338598,0.2495771833749906,20.773908688255545,-16.18824005126953,8.089370727539062,-13.455777168273926,-0.2931394599933005,-1.9081510297978583,-1.903546407901791,0.0010151562723354,0.0113733999672877,0.0108668770790698,-1.4656972999665023,-9.540755148989293,-9.517732039508957,-0.2915606445992856,-1.8938422662382224,-1.8892251911394096,-0.2941741914763173,-1.9225422532173877,-1.9166743329124345,20.77656457383983,2.691161237673583,-943.654297,4109.441406,-29.03619300000014
-135.5501251220703,6.607414722442627,19.534269332885746,-1.4909807443618774,-7.795762062072754,-7.438384056091309,5.001563549041748,10.69332790374756,-2.6120498180389404,1.0333333333333332,-0.1621824536932927,0.9047345773769396,1.0888255491269172,-0.2955257119237614,-1.886302811426748,-1.8801516448966853,-0.2591707954503559,-1.7057722606316952,-1.649308592983028,-0.3470590481561719,0.254735918596634,20.679275353182188,4.475955963134766,13.40108871459961,-11.029644012451172,-0.2939324734581956,-1.9009031414397304,-1.8962418702986408,0.0010221738451423,0.0114563826477311,0.0120472739946351,-1.469662367290978,-9.504515707198651,-9.481209351493206,-0.292777351239763,-1.886302811426748,-1.8801516448966853,-0.2955257119237614,-1.915249810091587,-1.9107956197447775,20.683756174927677,2.67963504056284,-944.260803,4108.628418,-29.180175000000077
-135.5185089111328,6.511314868927002,19.47805976867676,-1.6279205083847046,-7.608955383300781,-7.3585920333862305,6.212093353271484,11.883803367614746,-3.8976547718048096,1.0416666666666667,-0.2866845483631155,1.130346714641826,1.204352164768502,-0.2979147498267874,-1.8768832554714,-1.870115376856948,-0.2616534183655791,-1.7214129544272905,-1.6648928877901692,-0.4845432812311593,0.1179873828864856,20.507967129627485,22.41680145263672,9.575042724609377,-16.432771682739258,-0.2949599531756005,-1.8932298305156932,-1.8881058217210756,0.0018320072575392,0.012265034970654,0.0134196949214816,-1.4747997658780023,-9.466149152578469,-9.440529108605377,-0.29350001872066,-1.8768832554714,-1.870115376856948,-0.2979147498267874,-1.9083938868903552,-1.9039845875494936,20.514029808981658,2.666228699041041,-944.838989,4107.78418,-29.19470200000012
-135.4938507080078,6.407067775726318,19.42473030090332,-1.8085054159164429,-7.457197666168213,-7.162304401397705,5.2967681884765625,12.356743812561035,-4.840667724609375,1.05,-0.4522935939150705,1.317494689735094,1.4335168102096425,-0.301683863109413,-1.8659041330569408,-1.8581694034385343,-0.2641674505581576,-1.736962155536098,-1.6803776328188236,-0.7061980160111522,0.0665435241842877,20.28262858749205,18.210926055908203,23.554515838623047,-21.670188903808597,-0.2965597070113878,-1.8847318797490105,-1.8789427848988836,0.0033247044753731,0.0137603927181766,0.0153671773877945,-1.482798535056939,-9.423659398745052,-9.394713924494416,-0.29350001872066,-1.8659041330569408,-1.8581694034385343,-0.301683863109413,-1.900726932551741,-1.8970523081628388,20.295028112731917,2.650548041235003,-945.410522,4106.881836,-29.25097600000015
-135.47621154785156,6.3000335693359375,19.37656021118164,-1.9569510221481323,-7.42037296295166,-7.018280982971191,4.401064872741699,12.144865036010742,-5.512377262115479,1.0583333333333331,-0.583149878619313,1.3875877287476932,1.6070411467225112,-0.3065434454312405,-1.854340901984043,-1.8447773938825132,-0.2667219792700846,-1.7524149963859652,-1.6957507777678444,-0.9008212302802048,0.074519134259811,20.17005927483194,4.418964385986328,17.28281021118164,-17.813472747802734,-0.2991683923535039,-1.875454673635471,-1.8684878020428184,0.0050125288957528,0.0157704682874089,0.0175882513437404,-1.4958419617675198,-9.377273368177354,-9.342439010214092,-0.2941741914763173,-1.854340901984043,-1.8447773938825132,-0.3065434454312405,-1.8938422662382224,-1.8892251911394096,20.19030270056713,2.633581724133088,-945.889221,4105.925293,-29.33612000000005
-135.4579315185547,6.19675874710083,19.334606170654297,-2.037402868270874,-7.153578758239746,-6.950309753417969,4.361554145812988,11.320557594299316,-5.735078811645508,1.0666666666666669,-0.6442661944239174,1.6845750177401015,1.7022475293122108,-0.3119123303847732,-1.840302776836209,-1.830591997804912,-0.2693212486899577,-1.7677508528596002,-1.7110057110828851,-0.9695902890139848,-0.1034131561303454,19.943148847077257,32.01530456542969,8.156547546386719,-9.654221534729004,-0.3027160201351951,-1.864746775755068,-1.8567611633759185,0.0066151225135862,0.0181596226681059,0.0197222510219832,-1.5135801006759757,-9.32373387877534,-9.283805816879592,-0.2955257119237614,-1.840302776836209,-1.830591997804912,-0.3119123303847732,-1.886302811426748,-1.8801516448966853,19.966972368040427,2.6143968089608163,-946.479553,4104.90918,-29.4589840000001
-135.44993591308594,6.1005859375,19.294578552246094,-2.1286745071411133,-6.861657619476318,-6.907336235046387,3.118136167526245,10.534737586975098,-5.293873310089111,1.075,-0.7149536631140951,2.001487210120403,1.7710614361832429,-0.3178702775773906,-1.8236237167518723,-1.8158331525033848,-0.2719701676697693,-1.782947717165866,-1.7261376540204136,-1.035744094442422,-0.3158173980508486,19.71718869559729,35.03053665161133,5.156822204589844,-10.952596664428713,-0.307184933265921,-1.8522109568200928,-1.843897464897258,0.007955099733474,0.0209749678655344,0.0215434589664469,-1.535924666329605,-9.261054784100464,-9.219487324486291,-0.2979147498267874,-1.8236237167518723,-1.8158331525033848,-0.3178702775773906,-1.8768832554714,-1.870115376856948,19.746899415246776,2.5930474371668213,-947.050964,4103.766602,-29.57226500000013
-135.4534912109375,6.016641139984131,19.259397506713867,-2.148184537887573,-6.51864767074585,-6.8967604637146,1.6366347074508667,9.101519584655762,-4.690479278564453,1.0833333333333333,-0.7131560753631088,2.3636865675525325,1.806578244999808,-0.3238132448720832,-1.8039263286889344,-1.800778333795053,-0.2746686113770366,-1.797980436571607,-1.7411441401353724,-1.014525046107042,-0.5581500647963612,19.47084761260552,41.16119384765625,1.2690925598144531,-2.341203689575142,-0.3123646322749801,-1.8376195714636,-1.8300300562848792,0.008797051833317,0.0245862637856843,0.0227312447323371,-1.5618231613749007,-9.188097857318,-9.150150281424397,-0.301683863109413,-1.8039263286889344,-1.800778333795053,-0.3238132448720832,-1.8659041330569408,-1.8581694034385343,19.505247994253157,2.569398338980823,-947.556335,4102.498047,-29.719604000000118
-135.48809814453125,5.946518898010254,19.22208976745605,-2.130378007888794,-6.171237945556641,-6.821224689483643,-2.0406861305236816,8.08020305633545,-3.329031229019165,1.0916666666666666,-0.6742453483295909,2.724064520171708,1.9058880621171088,-0.3294319561081631,-1.781225791020837,-1.7848959332774104,-0.277413877677938,-1.812823984830114,-1.756018272912684,-0.9761698245488448,-0.7442053974942137,19.17189325412207,41.68916702270508,9.064292907714844,2.1367835998534623,-0.3179142508747302,-1.8206839030563795,-1.8153753622526547,0.0091210726298692,0.0290004103154548,0.0236553580814916,-1.5895712543736509,-9.103419515281896,-9.076876811263274,-0.3065434454312405,-1.781225791020837,-1.7848959332774104,-0.3294319561081631,-1.854340901984043,-1.8447773938825132,19.211148850276253,2.543058045922919,-948.006836,4101.092285,-29.901489000000083
-135.55783081054688,5.895029544830322,19.189348220825195,-2.107516050338745,-6.080668926239014,-6.782188415527344,-6.346644401550293,6.128936767578125,-2.1590240001678467,1.1,-0.6308389110379022,2.823562525102254,1.96730063576796,-0.334688947033479,-1.7576961033116514,-1.7685017613126774,-0.2802029522365503,-1.8274714523577111,-1.7707557875902895,-0.9632797691409144,-0.7666952434733748,19.078144835223316,10.868282318115234,4.684352874755859,2.74343490600586,-0.3235433511951778,-1.801354943321901,-1.8001202357386874,0.0090337869464267,0.0329041073106313,0.024532450143563,-1.6177167559758894,-9.006774716609504,-9.000601178693437,-0.3119123303847732,-1.7576961033116514,-1.7685017613126774,-0.334688947033479,-1.840302776836209,-1.830591997804912,19.117827801917212,2.5157723988130134,-948.39856,4099.605957,-30.135192000000075
-135.66354370117188,5.861518859863281,19.16097640991211,-2.070103645324707,-5.809010982513428,-6.843554496765137,-10.690587997436523,4.202335834503174,-0.9949594140052797,1.1083333333333334,-0.5736029578075104,3.100783266335375,1.928079384304759,-0.3394689716818749,-1.7318562427588566,-1.7524344331101378,-0.2830318603338993,-1.8419035877140348,-1.7853594078662076,-0.8752936186579606,-0.9688392677303154,18.92917690375524,32.59895324707031,-7.363929748535156,4.48948860168457,-0.3290546794545982,-1.77966563650643,-1.7844887227997326,0.0085572815959935,0.0363721273967199,0.0251547756166221,-1.6452733972729912,-8.89832818253215,-8.922443613998663,-0.3178702775773906,-1.7318562427588566,-1.7524344331101378,-0.3394689716818749,-1.8236237167518723,-1.8158331525033848,18.974154176121274,2.4870849745570864,-948.724609,4098.095703,-30.387878000000114
-135.8151092529297,5.844149112701416,19.133724212646484,-1.9892432689666748,-5.641254425048828,-6.900190353393555,-16.23893165588379,2.751046657562256,0.2537347078323364,1.1166666666666667,-0.4741236873422296,3.2701136711604866,1.894165506551427,-0.3434200024097268,-1.704605295499186,-1.736649720555543,-0.2858936936873137,-1.8561086318431947,-1.799831488870837,-0.7649499435310451,-1.0740187856113066,18.846304688110816,20.130786895751957,-6.796302795410156,9.703245162963867,-0.3341646244210654,-1.7558619522558931,-1.7686520364101643,0.0078042014919072,0.0392440812709858,0.0254123229386607,-1.6708231221053271,-8.779309761279466,-8.843260182050821,-0.3238132448720832,-1.704605295499186,-1.736649720555543,-0.3434200024097268,-1.8039263286889344,-1.800778333795053,18.89237584754924,2.4575534100817844,-949.020996,4096.46582,-30.677429000000075
-136.0166778564453,5.84130334854126,19.105207443237305,-1.916148781776428,-5.8133063316345215,-7.06425142288208,-22.19458770751953,1.5718564987182615,1.6058464050292969,1.125,-0.3839063029427334,3.0994236753943945,1.754264594955755,-0.3466192216009163,-1.678776764870899,-1.7220308489309113,-0.2887821872006547,-1.8700984382171189,-1.8141817459452612,-0.6875586368664652,-1.0031383298416108,19.0777279544174,-20.646228790283203,-19.687328338623047,8.771338462829616,-0.3387258197668321,-1.7308320394922865,-1.752902539437336,0.0068477306667827,0.040803954547102,0.0249216145764214,-1.6936290988341605,-8.654160197461431,-8.76451269718668,-0.3294319561081631,-1.678776764870899,-1.7220308489309113,-0.3466192216009163,-1.781225791020837,-1.7848959332774104,19.116451744261703,2.429779116653064,-949.253357,4094.70166,-30.905151000000046
-136.26296997070312,5.845265865325928,19.073627471923828,-1.890022039413452,-6.206775665283203,-7.152131080627441,-27.54853630065918,1.2573908567428589,2.420713186264038,1.1333333333333333,-0.3416787361208966,2.711840866124032,1.69223422405672,-0.3494665444019237,-1.6561780909865325,-1.707928897063772,-0.291694408404004,-1.8838999223086728,-1.828414486754126,-0.7162169404019255,-0.7344701275391079,19.411917172582328,-47.2163200378418,-10.54555892944336,3.135209083557129,-0.3427327374255841,-1.705822499485425,-1.7375091321946083,0.0058368651581995,0.040515883318557,0.0239719305575269,-1.7136636871279207,-8.529112497427125,-8.687545660973042,-0.334688947033479,-1.6561780909865325,-1.707928897063772,-0.3494665444019237,-1.7576961033116514,-1.7685017613126774,19.43900566873632,2.404594321740257,-949.54834,4092.958984,-31.108764000000065
-136.53184509277344,5.859350204467773,19.04039001464844,-1.8444212675094604,-6.500872611999512,-7.287479400634766,-30.21257400512696,0.4729031324386596,3.43821382522583,1.1416666666666666,-0.280759060525003,2.429146495789155,1.5841673011485795,-0.3518062032396321,-1.6359352035216228,-1.694727502887534,-0.2946261267643343,-1.8975327156713533,-1.842537215944856,-0.6960666369480796,-0.5526979231461379,19.70851538296731,-35.29163360595703,-16.241798400878906,5.472092628478977,-0.3461561886668148,-1.6814703195274194,-1.7227542805095797,0.0048811142555046,0.0380603705447261,0.0228024687473819,-1.7307809433340742,-8.407351597637097,-8.613771402547897,-0.3394689716818749,-1.6359352035216228,-1.694727502887534,-0.3518062032396321,-1.7318562427588566,-1.7524344331101378,19.728546889164985,2.3816282043599157,-949.776733,4091.119873,-31.29675300000008
-136.82147216796875,5.884946346282959,18.998619079589844,-1.7760066986083984,-6.803630828857422,-7.330322742462158,-32.621185302734375,0.1780703514814376,5.106356620788574,1.15,-0.1981580542660221,2.1424949728495486,1.569644869661495,-0.3534575203585156,-1.6180810787478763,-1.681647128973688,-0.2975716061006553,-1.9110167246609189,-1.8565509420196364,-0.6830895987682923,-0.292901887234738,19.94039095208314,-36.33098602294922,-5.141201019287109,8.209748268127441,-0.3489538984021429,-1.6587152867252235,-1.7085968196822896,0.0040235488114962,0.0342230339887637,0.0217170916994103,-1.7447694920107146,-8.293576433626118,-8.542984098411448,-0.3434200024097268,-1.6180810787478763,-1.681647128973688,-0.3534575203585156,-1.704605295499186,-1.736649720555543,19.95423750077688,2.3603083829206155,-949.965149,4089.205811,-31.508117000000084
-137.1215362548828,5.919384002685547,18.950729370117188,-1.776854157447815,-6.945764064788818,-7.353152275085449,-33.77326202392578,-0.1613058149814605,6.396188259124756,1.1583333333333332,-0.1855505011695979,2.019850595994251,1.5752171514116764,-0.3550037745349289,-1.6012489904479243,-1.668520319378591,-0.3005299708884464,-1.924360466247985,-1.870455278014458,-0.7130824476896805,-0.1534674674661695,20.053908369385777,-17.055988311767578,-2.739543914794922,-0.1016950607299804,-0.3512706528271834,-1.638044025714971,-1.6949709394468992,0.0033127036236063,0.0305975544993787,0.0210794085292032,-1.756353264135917,-8.190220128574856,-8.474854697234496,-0.3466192216009163,-1.6012489904479243,-1.668520319378591,-0.3550037745349289,-1.678776764870899,-1.7220308489309113,20.067169200674385,2.339655116790459,-950.110046,4087.253662,-31.75854500000014
-137.43447875976562,5.961003303527832,18.89899635314941,-1.7303467988967896,-6.962080001831055,-7.527984142303467,-35.285430908203125,-0.4862740039825439,7.292380332946777,1.1666666666666667,-0.1261289118910407,2.0239603003210025,1.4299802004885187,-0.3560548488006876,-1.584382654611916,-1.656603817707853,-0.3034970946284521,-1.9375636550364177,-1.8842603098286903,-0.6322239836635365,-0.1790020585723643,20.18802747831341,-1.9579124450683596,-20.97982406616211,5.580883026123047,-0.3531577782671376,-1.6191652036631743,-1.6818855332022875,0.0026145041461528,0.0282098319055924,0.0203778304910474,-1.765788891335688,-8.095826018315872,-8.409427666011439,-0.3494665444019237,-1.584382654611916,-1.656603817707853,-0.3560548488006876,-1.6561780909865325,-1.707928897063772,20.19871783969542,2.319780088808811,-950.311951,4085.161133,-31.94824200000005
-137.75502014160156,6.004360198974609,18.84357643127441,-1.69769549369812,-6.904770851135254,-7.567599773406982,-36.126731872558594,-0.4223408699035644,7.791168689727783,1.175,-0.0813825238074967,2.1009410492322766,1.4212834977083917,-0.3567330364990834,-1.5668748125349805,-1.6447597885602832,-0.3064698699326111,-1.950620945140876,-1.897966641400026,-0.5914019016154763,-0.1767565196463514,20.175596835204782,6.877098083496094,-4.753875732421875,3.918156623840359,-0.3546110766865695,-1.6013045479728638,-1.6692517115015897,0.0019962095467895,0.0271684308180258,0.0197675286914169,-1.7730553834328475,-8.00652273986432,-8.346258557507948,-0.3518062032396321,-1.5668748125349805,-1.6447597885602832,-0.3567330364990834,-1.6359352035216228,-1.694727502887534,20.18503670378623,2.29947600543064,-950.524963,4083.132324,-32.122985000000085
