PacketCounter,SampleTimeFine,Euler_X,Euler_Y,Euler_Z,Acc_X,Acc_Y,Acc_Z,Gyr_X,Gyr_Y,Gyr_Z,Unnamed: 11,time_seconds,Acc_Z_derivative
0,2978585540,20.885427474975582,-87.51242065429688,-165.91075134277344,0.0,0.0,0.0,0.0,0.0,0.0, ,0.0,25.378371477127068
1,2978593873,20.81968307495117,-87.51604461669922,-165.8404083251953,9.832265853881836,-0.1052600666880607,0.2114864289760589,1.237128973007202,-2.219601392745972,0.6333246827125549, ,0.008333333333333333,14.193980097770687
2,2978602206,20.810535430908203,-87.5157241821289,-165.82711791992188,9.804668426513672,-0.0994390845298767,0.2365663349628448,1.0656673908233645,-2.1930651664733887,0.5858103632926941, ,0.016666666666666666,0.673869252204895
3,2978610539,20.72624015808105,-87.51793670654297,-165.73895263671875,9.778972625732422,-0.0860589519143104,0.2227175831794738,1.1416393518447876,-2.0659162998199463,0.6762543320655823, ,0.025,0.4441693425178581
4,2978618872,20.685237884521484,-87.5195083618164,-165.69309997558594,9.81443691253662,-0.0726061835885047,0.2439691573381424,1.1548306941986084,-2.32433819770813,0.8143661618232727, ,0.03333333333333333,2.8403735160827672
5,2978627205,20.613191604614254,-87.5232162475586,-165.61782836914062,9.809286117553713,-0.0914795398712158,0.2700571417808532,1.0664103031158447,-2.242372751235962,0.6675710678100586, ,0.041666666666666664,0.8296403288841283
6,2978635538,20.599639892578125,-87.524169921875,-165.6002197265625,9.79210376739502,-0.0840745493769645,0.2577964961528778,1.061005711555481,-2.3016695976257324,0.6499228477478027, ,0.05,-4.278060793876648
7,2978643871,20.520538330078125,-87.52701568603516,-165.51809692382812,9.771709442138672,-0.0879868194460868,0.1987561285495758,1.0324459075927734,-2.185842037200928,0.685936450958252, ,0.058333333333333334,-2.8612777590751683
8,2978652204,20.528120040893555,-87.52693939208984,-165.52191162109375,9.80022144317627,-0.1402742564678192,0.210108533501625,1.0320104360580444,-2.243294715881348,0.5086346864700317, ,0.06666666666666667,1.4201706647872925
9,2978660537,20.50479888916016,-87.53042602539062,-165.49583435058594,9.805455207824709,-0.0889416486024856,0.222425639629364,0.9966883063316344,-2.3223915100097656,0.4253115952014923, ,0.075,1.5679094195365924
10,2978668870,20.54203414916992,-87.5291519165039,-165.52960205078125,9.798901557922363,-0.0840547606348991,0.2362403571605682,1.0018622875213623,-2.1735472679138184,0.3178854286670685, ,0.08333333333333333,1.7610776424407923
11,2978677203,20.53302764892578,-87.53176879882812,-165.51806640625,9.835152626037598,-0.0918613001704216,0.2517769336700439,0.993025541305542,-2.233125925064087,0.3122759461402893, ,0.09166666666666666,-1.217286586761471
12,2978685536,20.572341918945312,-87.5323257446289,-165.55392456054688,9.857827186584473,-0.0983075574040412,0.2159522473812103,0.9905921816825868,-2.3513355255126958,0.3730329573154449, ,0.1,-1.7441797256469638
13,2978693869,20.55558013916016,-87.53558349609375,-165.53427124023438,9.792667388916016,-0.0749185904860496,0.2227072715759277,1.0303198099136353,-2.3068950176239014,0.3844824731349945, ,0.10833333333333334,0.12683629989624023
14,2978702202,20.59347915649414,-87.536376953125,-165.5678253173828,9.831361770629885,-0.0826073884963989,0.2180661857128143,1.102218747138977,-2.3875539302825928,0.3994411528110504, ,0.11666666666666667,1.3951510190963763
15,2978710535,20.566761016845703,-87.53947448730469,-165.53797912597656,9.821015357971191,-0.0759553611278534,0.2459597885608673,1.0629523992538452,-2.27234148979187,0.428385317325592, ,0.125,1.7070052027702314
16,2978718868,20.583194732666016,-87.54090881347656,-165.55018615722656,9.800540924072266,-0.0935414209961891,0.2465162724256515,1.0889251232147217,-2.399592876434326,0.5223894715309143, ,0.13333333333333333,-2.2389185428619403
17,2978727201,20.529600143432617,-87.54497528076172,-165.49269104003906,9.790542602539062,-0.0849141404032707,0.2086444795131683,1.1450459957122805,-2.3445990085601807,0.6048161387443542, ,0.14166666666666666,-0.29644399881362915
18,2978735534,20.515480041503903,-87.54584503173828,-165.47352600097656,9.811176300048828,-0.0960094779729843,0.241575539112091,1.1817255020141602,-2.301951169967652,0.6570435166358948, ,0.15,3.0751544237136823
19,2978743867,20.44680595397949,-87.55079650878906,-165.40098571777344,9.8052978515625,-0.0983755961060524,0.2598970532417297,1.145148515701294,-2.399003744125366,0.708784282207489, ,0.15833333333333333,-1.2932583689689618
20,2978752200,20.44913673400879,-87.55159759521484,-165.3996124267578,9.822205543518066,-0.0965016633272171,0.2200212329626083,1.0190496444702148,-2.300901412963867,0.5585312843322754, ,0.16666666666666666,-2.706907689571379
21,2978760533,20.446990966796875,-87.55599975585938,-165.39405822753906,9.784530639648438,-0.0862619802355766,0.2147819250822067,1.106291651725769,-2.47725510597229,0.3695493936538696, ,0.175,1.8810251355171221
22,2978768866,20.488330841064453,-87.5577621459961,-165.4310760498047,9.810342788696287,-0.0853054076433181,0.2513716518878937,1.087260127067566,-2.478484630584717,0.4153476357460022, ,0.18333333333333332,2.506165802478792
23,2978777199,20.471546173095703,-87.56121063232422,-165.4110107421875,9.800509452819824,-0.0841582939028739,0.2565513551235199,1.0837255716323853,-2.379741907119751,0.4120177924633026, ,0.19166666666666665,0.35319149494170965
24,2978785532,20.48569869995117,-87.56233978271484,-165.4206085205078,9.825456619262695,-0.0886808335781097,0.2572581768035888,1.1209430694580078,-2.346315383911133,0.5160372257232666, ,0.2,-1.8575629591941887
25,2978793865,20.455297470092773,-87.56651306152344,-165.38619995117188,9.797141075134276,-0.09531831741333,0.2255919724702835,1.160414457321167,-2.402230978012085,0.4982352554798126, ,0.20833333333333334,-2.7121013402938807
26,2978802198,20.47789001464844,-87.56771850585938,-165.40475463867188,9.837918281555176,-0.1064670383930206,0.2120564877986908,1.0669225454330444,-2.385146379470825,0.4814323484897613, ,0.21666666666666667,0.21436125040054144
27,2978810531,20.42416763305664,-87.57158660888672,-165.34657287597656,9.790181159973145,-0.0849546417593956,0.2291646599769592,1.221606969833374,-2.3490560054779053,0.6080948114395142, ,0.225,0.21977663040160778
28,2978818864,20.397918701171875,-87.5728759765625,-165.31564331054688,9.830942153930664,-0.096341960132122,0.2157194316387176,1.1359783411026,-2.304025888442993,0.72054123878479, ,0.23333333333333334,-0.7653352618217468
29,2978827197,20.343175888061523,-87.57675170898438,-165.25634765625,9.81490707397461,-0.0602235719561576,0.2164090722799301,1.2273445129394531,-2.3065617084503174,0.595723032951355, ,0.24166666666666667,1.8825075030326879
30,2978835530,20.317907333374023,-87.57675170898438,-165.2254638671875,9.809709548950195,-0.0964443385601043,0.2470945566892624,1.244275450706482,-2.1874043941497803,0.6759212613105774, ,0.25,2.712729871273039
31,2978843863,20.250078201293945,-87.57942199707031,-165.1530303955078,9.81697940826416,-0.0874207839369773,0.2616212368011474,1.2268835306167605,-2.1501870155334477,0.6083253026008606, ,0.2583333333333333,-0.5831891298293961
32,2978852196,20.2404899597168,-87.57868957519531,-165.13821411132812,9.787714958190918,-0.0907269343733787,0.2373747378587722,1.1962487697601318,-2.110433578491211,0.559991180896759, ,0.26666666666666666,-2.136075496673575
33,2978860529,20.20747375488281,-87.58216094970703,-165.10174560546875,9.82801342010498,-0.1037389263510704,0.2260199785232544,1.1112607717514038,-2.329153537750244,0.4804590344429016, ,0.275,2.3887261748314206
34,2978868862,20.212852478027344,-87.58135986328125,-165.10287475585938,9.802794456481934,-0.0837581679224968,0.2771868407726288,1.0777831077575684,-2.1598949432373047,0.4927026331424713, ,0.2833333333333333,1.1417090892792032
35,2978877195,20.187515258789062,-87.58524322509766,-165.07447814941406,9.790392875671388,-0.0913638472557067,0.2450484633445739,1.052937150001526,-2.3363513946533203,0.4369660317897796, ,0.2916666666666667,-2.296777367591851
36,2978885528,20.1986141204834,-87.58589172363281,-165.0809783935547,9.822236061096191,-0.0840758979320526,0.2389072179794311,1.1290626525878906,-2.318728446960449,0.5219540596008301, ,0.3,-2.345685660839065
37,2978893861,20.183691024780277,-87.58840942382812,-165.0629119873047,9.776562690734863,-0.0970163345336914,0.2059537023305893,1.0416412353515625,-2.255820274353028,0.3516194224357605, ,0.30833333333333335,-0.5530697107314868
38,2978902194,20.210601806640625,-87.58832550048828,-165.08677673339844,9.782438278198242,-0.0983308255672454,0.2296893894672393,0.9388770461082458,-2.268319606781006,0.409943014383316, ,0.31666666666666665,1.862510740756992
39,2978910527,20.22505187988281,-87.59019470214844,-165.0980987548828,9.82221794128418,-0.0961560755968093,0.2369955480098724,1.0623632669448853,-2.20774245262146,0.1763412058353424, ,0.325,2.61460661888124
40,2978918860,20.273853302001957,-87.5898666381836,-165.14321899414062,9.820284843444824,-0.0832317173480987,0.2732661664485931,1.018844723701477,-2.2777204513549805,0.2996993660926819, ,0.3333333333333333,-0.014425814151733718
41,2978927193,20.273731231689453,-87.5928726196289,-165.1401824951172,9.809398651123049,-0.0951336622238159,0.2367551177740097,1.0360829830169678,-2.318011283874512,0.2937312424182892, ,0.3416666666666667,-3.785019814968102
42,2978935526,20.33363151550293,-87.5931167602539,-165.19647216796875,9.824294090270996,-0.0923897922039032,0.2101825028657913,1.0021440982818604,-2.3842499256134038,0.2800788879394531, ,0.35,0.09539455175397293
43,2978943859,20.30880355834961,-87.59661865234375,-165.16860961914062,9.842366218566896,-0.0847188681364059,0.2383450269699096,1.0528090000152588,-2.319343328475952,0.428718239068985, ,0.35833333333333334,1.9622299075126541
44,2978952192,20.32946014404297,-87.5975112915039,-165.18515014648438,9.80751609802246,-0.0913918167352676,0.242886334657669,1.0681264400482178,-2.356099843978882,0.4823032021522522, ,0.36666666666666664,-1.4326089620590086
45,2978960525,20.286102294921875,-87.60240936279297,-165.138427734375,9.83576488494873,-0.0811025127768516,0.2144682109355926,1.0951238870620728,-2.4346587657928467,0.5723884701728821, ,0.375,-0.2920773625373627
46,2978968858,20.27589225769043,-87.60387420654297,-165.1243896484375,9.8233003616333,-0.0892568007111549,0.2380183786153793,1.0313187837600708,-2.3718526363372803,0.6506144404411316, ,0.3833333333333333,3.291116952896113
47,2978977191,20.21306037902832,-87.6088638305664,-165.0580596923828,9.79123592376709,-0.0964040160179138,0.2693201601505279,1.1065222024917605,-2.431482553482056,0.6764079332351685, ,0.39166666666666666,-1.0662817955017054
48,2978985524,20.2273006439209,-87.61173248291016,-165.0670166015625,9.803037643432615,-0.1116663515567779,0.2202470153570175,1.1978111267089844,-2.57912278175354,0.6052259802818298, ,0.4,-2.712447345256784
49,2978993857,20.189943313598636,-87.61640930175781,-165.02584838867188,9.805959701538086,-0.0946920663118362,0.2241127043962478,1.1402559280395508,-2.4361441135406494,0.540242612361908, ,0.4083333333333333,4.752578437328312
50,2979002190,20.20810890197754,-87.61665344238281,-165.03982543945312,9.816587448120115,-0.084998033940792,0.2994566559791565,1.0829827785491943,-2.265988826751709,0.4633999466896057, ,0.4166666666666667,0.1304206252097515
51,2979010523,20.16395568847656,-87.62002563476562,-164.9911346435547,9.777642250061035,-0.0843376070261001,0.226286381483078,1.2191479206085205,-2.3128886222839355,0.5338647365570068, ,0.425,-7.053096592426316
52,2979018856,20.210433959960938,-87.62010955810547,-165.03330993652344,9.830735206604004,-0.0954132229089737,0.1819050461053848,1.093894362449646,-2.312991142272949,0.3305901288986206, ,0.43333333333333335,-0.038868784904448006
53,2979027189,20.200414657592773,-87.62224578857422,-165.02024841308594,9.795519828796388,-0.0983777046203613,0.2256385684013366,1.0386956930160522,-2.226773500442505,0.3147093057632446, ,0.44166666666666665,4.7330537438392675
54,2979035522,20.254796981811523,-87.62224578857422,-165.07057189941406,9.819830894470217,-0.09635791182518,0.2607892751693725,1.0655906200408936,-2.308662176132202,0.2875325977802276, ,0.45,-1.0695505142212252
55,2979043855,20.247846603393555,-87.62480163574219,-165.06088256835938,9.842026710510254,-0.0844633430242538,0.2078127264976501,1.027374267578125,-2.229104518890381,0.2965744137763977, ,0.4583333333333333,-1.6040915250778518
56,2979052188,20.30636405944824,-87.62520599365234,-165.11582946777344,9.803861618041992,-0.091149054467678,0.2340544164180755,1.003680944442749,-2.379921197891236,0.2891463041305542, ,0.4666666666666667,1.9395893812179548
57,2979060521,20.277103424072266,-87.627685546875,-165.08290100097656,9.793432235717772,-0.0816804468631744,0.2401392161846161,1.1183046102523804,-2.1994686126708984,0.4091489911079407, ,0.475,-1.1945021152496214
58,2979068854,20.295604705810547,-87.62776947021484,-165.096923828125,9.831597328186035,-0.0805793926119804,0.2141460478305816,1.121404051780701,-2.248443126678467,0.4570476114749908, ,0.48333333333333334,-2.463382780551907
59,2979077187,20.25149345397949,-87.62950134277344,-165.0492706298828,9.776819229125977,-0.0725881531834602,0.1990828365087509,1.0990941524505615,-2.1170167922973637,0.4556388258934021, ,0.49166666666666664,2.3328101634978964
60,2979085520,20.26576042175293,-87.62982940673828,-165.05874633789062,9.84152889251709,-0.0803166925907135,0.2530262172222137,1.149912714958191,-2.289528608322144,0.4962374269962311, ,0.5,2.8619331121444453
61,2979093853,20.225099563598636,-87.633056640625,-165.01451110839844,9.82477855682373,-0.0854822248220443,0.2467817217111587,1.098633050918579,-2.267500400543213,0.4944956600666046, ,0.5083333333333333,0.09863197803497492
62,2979102186,20.25774383544922,-87.63371276855469,-165.04190063476562,9.815378189086914,-0.0877275839447975,0.2546700835227966,1.2093889713287354,-2.343062162399292,0.4212389290332794, ,0.5166666666666666,-0.7193309068679579
63,2979110519,20.21958351135254,-87.63661193847656,-165.0005645751953,9.80062770843506,-0.0974014326930046,0.234792873263359,1.0684082508087158,-2.245241641998291,0.4723649024963379, ,0.525,-1.3250568509101672
64,2979118852,20.225574493408203,-87.63611602783203,-165.001708984375,9.84496784210205,-0.0853475183248519,0.2325858026742935,1.1595691442489624,-2.1873788833618164,0.5029739737510681, ,0.5333333333333333,-0.042994916439052844
65,2979127185,20.214990615844727,-87.63926696777344,-164.98818969726562,9.794419288635254,-0.0732235610485076,0.2340762913227081,1.0318310260772705,-2.326899528503418,0.3533355593681335, ,0.5416666666666666,-0.6996837258338786
66,2979135518,20.21650505065918,-87.6391830444336,-164.9851837158203,9.804208755493164,-0.0821316912770271,0.2209244072437286,1.119867205619812,-2.222752094268799,0.5375275611877441, ,0.55,-0.7324343919753904
67,2979143851,20.16405487060547,-87.64167022705078,-164.92880249023438,9.801640510559082,-0.0726817026734352,0.2218690514564514,1.1502200365066528,-2.184945583343506,0.5282295346260071, ,0.5583333333333333,1.1451673507690465
68,2979152184,20.16608047485352,-87.6413345336914,-164.92608642578125,9.824566841125488,-0.0780239030718803,0.240010529756546,1.1353381872177124,-2.182051181793213,0.5224151611328125, ,0.5666666666666667,-0.4859688878059387
69,2979160517,20.103076934814453,-87.64324951171875,-164.8600616455078,9.821897506713867,-0.0879929661750793,0.2137695699930191,1.0388749837875366,-2.089276075363159,0.5406268239021301, ,0.575,-0.15212237834934506
70,2979168850,20.09500503540039,-87.64266967773438,-164.84768676757812,9.843558311462402,-0.0988108217716217,0.2374751567840576,1.0935101509094238,-2.130284786224365,0.5533059239387512, ,0.5833333333333334,0.5711057782172801
71,2979177183,20.038599014282227,-87.64474487304688,-164.78822326660156,9.796485900878906,-0.0663741379976272,0.2232879996299743,1.0559085607528689,-2.125469207763672,0.5228762030601501, ,0.5916666666666667,-0.16089946031570435
72,2979185516,20.01289367675781,-87.6444091796875,-164.7577667236328,9.810338973999023,-0.0819044262170791,0.2347934991121292,1.141024470329285,-2.1419389247894287,0.6521000266075134, ,0.6,-1.6841518878936839
73,2979193849,19.94450187683105,-87.64640045166016,-164.6852264404297,9.798468589782717,-0.0810434073209762,0.195218801498413,1.1675353050231934,-2.091453790664673,0.5773065090179443, ,0.6083333333333333,-0.1512140035629912
74,2979202182,19.919374465942383,-87.64482116699219,-164.6553955078125,9.825712203979492,-0.081776238977909,0.2322732657194137,1.141716241836548,-1.997475028038025,0.595774233341217, ,0.6166666666666667,1.9372263550758007
75,2979210515,19.840463638305664,-87.6470718383789,-164.57232666015625,9.821052551269531,-0.0852920711040496,0.2275059074163437,1.171505570411682,-2.109025001525879,0.6382939219474792, ,0.625,-0.00407159328460871
76,2979218848,19.81424331665039,-87.64649200439453,-164.5416717529297,9.786429405212402,-0.0797362625598907,0.2322054058313369,1.1017836332321167,-2.131539821624756,0.6493080854415894, ,0.6333333333333333,0.7458651065826398
77,2979227181,19.739370346069336,-87.64939880371094,-164.4632568359375,9.815211296081545,-0.0913911163806915,0.2399369925260543,1.1133099794387815,-2.160970687866211,0.6317623257637024, ,0.6416666666666666,0.7988038659095764
78,2979235514,19.68207550048828,-87.64948272705078,-164.4010467529297,9.81739902496338,-0.0787962228059768,0.2455188035964965,1.1546770334243774,-2.1558990478515625,0.8227676749229431, ,0.65,-0.17206460237503585
79,2979243847,19.592348098754883,-87.65164947509766,-164.3063201904297,9.813735008239746,-0.0954211503267288,0.2370692491531372,1.2827227115631104,-2.0745739936828613,0.6852192878723145, ,0.6583333333333333,-0.24991303682326915
80,2979252180,19.567047119140625,-87.65148162841797,-164.27528381347656,9.836304664611816,-0.0777114778757095,0.2413535863161087,1.256263017654419,-2.131437063217163,0.6512290835380554, ,0.6666666666666666,0.42053908109664384
81,2979260513,19.47627067565918,-87.653564453125,-164.17965698242188,9.823241233825684,-0.0957804173231124,0.2440782338380813,1.262615203857422,-2.1282355785369877,0.7078365087509155, ,0.675,0.153170228004452
82,2979268846,19.44239044189453,-87.65306854248047,-164.14096069335938,9.800333976745604,-0.0922581255435943,0.2439064234495163,1.1556246280670166,-2.084460735321045,0.6745892763137817, ,0.6833333333333333,-0.7339042425155657
83,2979277179,19.352924346923828,-87.65481567382812,-164.04681396484375,9.816553115844728,-0.0837722197175026,0.2318464964628219,1.2244758605957031,-2.043222188949585,0.6680833101272583, ,0.6916666666666667,-1.6238138079643303
84,2979285512,19.32152557373047,-87.65481567382812,-164.0109100341797,9.789051055908203,-0.0736810788512229,0.2168428599834442,1.1273466348648071,-2.158563137054444,0.686371922492981, ,0.7,1.429670155048326
85,2979293845,19.233436584472656,-87.65641021728516,-163.9188232421875,9.812569618225098,-0.0716615617275238,0.2556743323802948,1.1424334049224854,-2.04273533821106,0.6569410562515259, ,0.7083333333333334,1.1809337139129106
86,2979302178,19.201906204223636,-87.65657043457031,-163.88287353515625,9.818894386291504,-0.0716862827539444,0.2365250885486602,1.1111583709716797,-2.1824610233306885,0.6958234906196594, ,0.7166666666666667,0.39209604263305664
87,2979310511,19.127517700195312,-87.66024780273438,-163.8047332763672,9.789505958557127,-0.085309661924839,0.2622092664241791,1.1264756917953491,-2.267141819000244,0.6609113216400146, ,0.725,0.20043611526489613
88,2979318844,19.11068153381348,-87.66024780273438,-163.78306579589844,9.796615600585938,-0.0587060824036598,0.2398656904697418,1.1468900442123413,-2.1873788833618164,0.6218239665031433, ,0.7333333333333333,-2.212286889553072
89,2979327177,19.033615112304688,-87.66250610351562,-163.70223999023438,9.81653881072998,-0.0884549915790557,0.2253378182649612,1.1309325695037842,-2.1518261432647705,0.6368594765663147, ,0.7416666666666667,0.6135696172714535
90,2979335510,19.04100608825684,-87.6620101928711,-163.70553588867188,9.773958206176758,-0.0979962423443794,0.2500918507575989,1.058956742286682,-2.191426038742065,0.4938040673732757, ,0.75,-0.5006334185600281
91,2979343843,19.007740020751957,-87.66577911376953,-163.66854858398438,9.797125816345217,-0.0912929028272628,0.2169939279556274,1.1309069395065308,-2.3603262901306152,0.4808432459831238, ,0.7583333333333333,0.311967730522154
92,2979352176,19.02129173278809,-87.66544342041016,-163.6788330078125,9.811075210571287,-0.0831436291337013,0.2552913129329681,0.969024896621704,-2.2225983142852783,0.4684715270996094, ,0.7666666666666666,-0.015350282192171605
93,2979360509,18.99285316467285,-87.66938781738281,-163.64744567871094,9.824371337890623,-0.1073069497942924,0.2167380899190902,1.0443308353424072,-2.3363513946533203,0.4424219131469726, ,0.775,0.3654474020004965
94,2979368842,19.02298164367676,-87.66963958740234,-163.67324829101562,9.828484535217283,-0.0813464894890785,0.2613821029663086,1.0997856855392456,-2.2956247329711914,0.4143999218940735, ,0.7833333333333333,0.44952660799026845
95,2979377175,18.98444938659668,-87.67207336425781,-163.6317138671875,9.800777435302734,-0.1056416854262352,0.2242302000522613,1.0141828060150146,-2.215298175811768,0.4516942501068115, ,0.7916666666666666,-0.811379849910784
96,2979385508,19.0095272064209,-87.6725845336914,-163.65255737304688,9.842000961303713,-0.0760069191455841,0.2478591054677963,1.0932538509368896,-2.3394761085510254,0.4556899964809418, ,0.8,0.044643580913508174
97,2979393841,18.975923538208008,-87.67662048339844,-163.61582946777344,9.806304931640623,-0.0879864394664764,0.2249742597341537,1.0522968769073486,-2.354639768600464,0.4759253561496734, ,0.8083333333333333,-1.2300968170166087
98,2979402174,18.974628448486328,-87.67762756347656,-163.61012268066406,9.811375617980955,-0.0952842086553573,0.2273574918508529,1.1020396947860718,-2.35092568397522,0.5956718325614929, ,0.8166666666666667,0.6547343730926549
99,2979410507,18.909772872924805,-87.68032836914062,-163.54193115234375,9.82687759399414,-0.0858586803078651,0.2358864992856979,1.0766047239303589,-2.2260563373565674,0.5936227440834045, ,0.825,0.8106628060340881
100,2979418840,18.91639709472656,-87.68074798583984,-163.54396057128906,9.786857604980469,-0.0805054232478141,0.2408685386180877,1.1105691194534302,-2.283585786819458,0.5317643284797668, ,0.8333333333333334,-1.0575288534164606
101,2979427173,18.86710357666016,-87.68354034423828,-163.4915313720703,9.83432960510254,-0.0909166783094406,0.2182610183954239,1.0574195384979248,-2.2251341342926025,0.5130915641784668, ,0.8416666666666667,0.6282877922058123
102,2979435506,18.866649627685547,-87.68379211425781,-163.48681640625,9.807024955749512,-0.0807219520211219,0.2513400018215179,1.0829826593399048,-2.248340606689453,0.5553549528121948, ,0.85,0.9315758943557739
103,2979443839,18.78851890563965,-87.68717193603516,-163.4055633544922,9.811904907226562,-0.0933120995759964,0.2337872833013534,1.0445868968963623,-2.27344298362732,0.6754346489906311, ,0.8583333333333333,-0.7908394932747029
104,2979452172,18.76441764831543,-87.68801879882812,-163.37710571289062,9.82782745361328,-0.0828036144375801,0.2381593436002731,1.0962764024734497,-2.2586886882781982,0.6791742444038391, ,0.8666666666666667,-0.006770789623265827
105,2979460505,18.70207405090332,-87.69209289550781,-163.31103515625,9.813921928405762,-0.0781145766377449,0.2336744368076324,1.1116193532943726,-2.3504133224487305,0.6213116645812988, ,0.875,-1.601893007755283
106,2979468838,18.684907913208008,-87.69268035888672,-163.28903198242188,9.779986381530762,-0.0976612344384193,0.2114611268043518,1.1593388319015503,-2.2916290760040283,0.6578888893127441, ,0.8833333333333333,-1.2327700853347832
107,2979477171,18.64128303527832,-87.697265625,-163.24110412597656,9.839883804321287,-0.0940905958414077,0.2131282687187194,1.1834160089492798,-2.417471408843994,0.5517690181732178, ,0.8916666666666666,2.5920653343200275
108,2979485504,18.636642456054688,-87.6988754272461,-163.2323455810547,9.833288192749023,-0.0928025916218757,0.2546622157096863,1.0714049339294434,-2.3890910148620605,0.6219519972801208, ,0.9,2.1578049659728595
109,2979493837,18.58758354187012,-87.70169067382812,-163.18026733398438,9.79759693145752,-0.0839530751109123,0.2490916848182678,1.0317541360855105,-2.2488272190093994,0.5157809853553772, ,0.9083333333333333,-1.7615532875061124
110,2979502170,18.597393035888672,-87.70185852050781,-163.1858673095703,9.796027183532717,-0.1030898541212081,0.2253029942512512,1.0798321962356567,-2.2369165420532227,0.4986195564270019, ,0.9166666666666666,-2.834355533123027
111,2979510503,18.54618453979492,-87.70390319824219,-163.1313018798828,9.80334758758545,-0.103458471596241,0.2018524259328842,1.073659062385559,-2.1742897033691406,0.5021030306816101, ,0.9249999999999999,-0.6700122356415079
112,2979518836,18.56692886352539,-87.70304870605469,-163.14817810058594,9.82668399810791,-0.0975608378648758,0.2141361236572265,1.0405911207199097,-2.169269561767578,0.419394701719284, ,0.9333333333333333,1.1351975798606802
113,2979527169,18.535717010498047,-87.70603942871094,-163.11231994628906,9.798206329345703,-0.0820621699094772,0.220772385597229,1.2337225675582886,-2.284508228302002,0.4438562989234924, ,0.9416666666666667,1.2112319469451958
114,2979535502,18.536996841430664,-87.70458984375,-163.10890197753906,9.791951179504396,-0.0959375649690628,0.2343233227729797,1.1398719549179075,-2.048985242843628,0.4818422198295593, ,0.95,-0.4213330149650307
115,2979543835,18.505409240722656,-87.70816802978516,-163.07290649414062,9.833303451538086,-0.0920528993010521,0.2137501686811447,1.2119247913360596,-2.3503878116607666,0.4668066799640655, ,0.9583333333333334,0.2587750554085133
116,2979552168,18.506690979003903,-87.7077407836914,-163.06997680664062,9.768190383911133,-0.0849758088588714,0.238636240363121,1.0750678777694702,-2.162686586380005,0.5167799592018127, ,0.9666666666666667,0.9140253067016619
117,2979560501,18.46517944335937,-87.7099609375,-163.02468872070312,9.843957901000977,-0.0850316137075424,0.228983923792839,1.1353380680084229,-2.195293426513672,0.4613251686096191, ,0.975,-0.28952926397323964
118,2979568834,18.500192642211918,-87.71125030517578,-163.0545654296875,9.809359550476074,-0.0624920800328254,0.2338107526302337,1.1947633028030396,-2.4034347534179688,0.4323554635047912, ,0.9833333333333333,-1.3683423399924912
119,2979577167,18.47079467773437,-87.71381378173828,-163.02247619628906,9.844280242919922,-0.0653227344155311,0.206178218126297,0.9987373948097228,-2.215400695800781,0.4018489122390747, ,0.9916666666666667,-1.5681552886962624
120,2979585500,18.4818058013916,-87.71424102783203,-163.02870178222656,9.815528869628906,-0.0865794420242309,0.2076748311519622,1.1528068780899048,-2.2981858253479004,0.5159603357315063, ,1.0,0.5812194943428022
121,2979593833,18.43821907043457,-87.71732330322266,-162.9813690185547,9.82425594329834,-0.0906675904989242,0.215865209698677,1.1381045579910278,-2.3045129776000977,0.5101971626281738, ,1.0083333333333333,1.4825668931007474
122,2979602166,18.464874267578125,-87.71775817871094,-163.00404357910156,9.816377639770508,-0.0899964272975921,0.2323842793703079,1.0493510961532593,-2.303206443786621,0.4341485202312469, ,1.0166666666666666,0.7773220539093089
123,2979610499,18.401561737060547,-87.72058868408203,-162.93734741210938,9.839751243591309,-0.0756895616650581,0.2288205772638321,1.0724809169769287,-2.2291815280914307,0.5827366709709167, ,1.025,1.2632426619529777
124,2979618832,18.40303039550781,-87.72144317626953,-162.93316650390625,9.775649070739746,-0.0808027982711792,0.2534383237361908,1.2628458738327026,-2.3163211345672607,0.5741559267044067, ,1.0333333333333332,-1.3771507143973043
125,2979627165,18.324316024780277,-87.72634887695312,-162.85015869140625,9.816055297851562,-0.109284833073616,0.2058680653572082,1.1884876489639282,-2.418905735015869,0.7250493764877319, ,1.0416666666666667,-3.619840443134221
126,2979635498,18.322946548461918,-87.72737884521484,-162.84434509277344,9.828752517700195,-0.0963007360696792,0.1931076496839523,1.107751727104187,-2.364834308624268,0.5989505052566528, ,1.05,1.908241510391246
127,2979643831,18.23215675354004,-87.730224609375,-162.74996948242188,9.790168762207031,-0.0886173173785209,0.2376720905303955,1.0842121839523315,-2.1673741340637207,0.6962077617645264, ,1.0583333333333333,2.201589345932012
128,2979652164,18.211597442626957,-87.72927856445312,-162.72509765625,9.782622337341309,-0.0963901504874229,0.2298008054494857,1.0901546478271484,-2.0900192260742188,0.6044062972068787, ,1.0666666666666667,-1.1666133999824577
129,2979660497,18.148380279541016,-87.73212432861328,-162.65863037109375,9.835759162902832,-0.1139053106307983,0.2182285338640213,1.0635414123535156,-2.2216508388519287,0.5738486051559448, ,1.075,-0.7751092314720154
130,2979668830,18.174617767333984,-87.73220825195312,-162.68069458007812,9.80686092376709,-0.1194097697734832,0.2168823182582855,1.0764766931533811,-2.276541948318481,0.4299733936786651, ,1.0833333333333333,2.3397150635719353
131,2979677163,18.1386775970459,-87.73471069335938,-162.6409912109375,9.782026290893556,-0.0852962955832481,0.2572237849235534,1.1306252479553225,-2.1951143741607666,0.4311516284942627, ,1.0916666666666666,-0.396870374679418
132,2979685496,18.151159286499023,-87.73332977294922,-162.6496124267578,9.853384971618652,-0.1030547097325325,0.2102678120136261,1.0376455783843994,-2.1160688400268555,0.4451882541179657, ,1.1,-0.20540535449966768
133,2979693829,18.105365753173828,-87.73462677001953,-162.60035705566406,9.81293487548828,-0.094193197786808,0.2538003623485565,1.0919474363327026,-2.0650196075439453,0.4364024996757507, ,1.1083333333333334,1.7900794744491613
134,2979702162,18.124156951904297,-87.73548889160156,-162.61521911621094,9.78231143951416,-0.0766291096806526,0.240102469921112,1.0401811599731443,-2.352846622467041,0.4914218783378601, ,1.1166666666666667,-1.4045798778533989
135,2979710495,18.09024810791016,-87.73808288574219,-162.57839965820312,9.839590072631836,-0.0832081660628318,0.2303906977176666,1.0249918699264526,-2.2520034313201904,0.4369916319847107, ,1.125,-0.9854811429977435
136,2979718828,18.10791778564453,-87.7373046875,-162.59170532226562,9.841520309448242,-0.0859003067016601,0.223677784204483,1.094790816307068,-2.167834997177124,0.4386822283267975, ,1.1333333333333333,-0.30165374279022217
137,2979727161,18.05157470703125,-87.73989868164062,-162.5320587158203,9.796170234680176,-0.0755075588822364,0.2253631353378296,1.0752471685409546,-2.1953704357147217,0.5296895503997803, ,1.1416666666666666,-0.8066645264625585
138,2979735494,18.026798248291016,-87.73877716064453,-162.50253295898438,9.807053565979004,-0.0722212716937065,0.2102333754301071,1.1416137218475342,-2.080413818359375,0.6228998303413391, ,1.15,-0.03582626581192194
139,2979743827,17.97489356994629,-87.74180603027344,-162.4467010498047,9.831297874450684,-0.090395800769329,0.2247660309076309,1.136772632598877,-2.2396576404571533,0.5264365673065186, ,1.1583333333333332,2.23945230245587
140,2979752160,17.94756317138672,-87.74146270751953,-162.41529846191406,9.756322860717772,-0.0969550609588623,0.2475575804710388,1.064437985420227,-2.150775909423828,0.6553530097007751, ,1.1666666666666667,1.665329039096786
141,2979760493,17.87343978881836,-87.7450180053711,-162.33782958984375,9.814152717590332,-0.0873681008815765,0.2525215148925781,1.0649758577346802,-2.2939341068267822,0.650793731212616, ,1.175,-0.9098580479621905
142,2979768826,17.880325317382812,-87.74484252929688,-162.3406524658203,9.794961929321287,-0.0786812677979469,0.232393279671669,1.0508370399475098,-2.2357897758483887,0.5126817226409912, ,1.1833333333333333,-1.6743439435958951
143,2979777159,17.826374053955078,-87.74701690673828,-162.28338623046875,9.84732723236084,-0.0767900273203849,0.2246157824993133,1.08567214012146,-2.1974964141845703,0.5210575461387634, ,1.1916666666666667,1.2034723162651098
144,2979785492,17.82893180847168,-87.74684143066406,-162.28225708007812,9.808692932128906,-0.0898421555757522,0.2524511516094208,1.0042445659637451,-2.20059585571289,0.5203403830528259, ,1.2,1.7954170703888046
145,2979793825,17.808013916015625,-87.7507553100586,-162.25833129882812,9.809944152832031,-0.0948060378432273,0.2545394003391266,1.044023513793945,-2.3821239471435547,0.4135034084320068, ,1.2083333333333333,-1.1345216631889397
146,2979802158,17.8194637298584,-87.75083923339844,-162.2659454345703,9.791671752929688,-0.0981526374816894,0.2335424572229385,1.037901520729065,-2.2684991359710693,0.4999771118164062, ,1.2166666666666666,1.0388410091399063
147,2979810491,17.802106857299805,-87.754150390625,-162.24610900878906,9.817113876342772,-0.10115647315979,0.2718534171581268,0.9734817743301392,-2.338733434677124,0.3784374892711639, ,1.225,0.970032513141522
148,2979818824,17.811864852905273,-87.75406646728516,-162.25123596191406,9.823760986328123,-0.0868700966238975,0.249709665775299,1.1276026964187622,-2.229309320449829,0.4995671808719635, ,1.2333333333333334,-1.289606094360357
149,2979827157,17.78504180908203,-87.75615692138672,-162.22164916992188,9.822754859924316,-0.0870056450366973,0.2503599822521209,0.9987375140190125,-2.1923482418060303,0.3820747435092926, ,1.2416666666666667,-0.9983074665069562
150,2979835490,17.80279541015625,-87.7563247680664,-162.23529052734375,9.831161499023438,-0.0851790457963943,0.2330712080001831,1.067178726196289,-2.2696006298065186,0.4685996472835541, ,1.25,-1.745678186416633
151,2979843823,17.775188446044922,-87.76008605957031,-162.20509338378906,9.834988594055176,-0.0841382145881652,0.2212653458118438,0.984111785888672,-2.40484356880188,0.4534616470336914, ,1.2583333333333333,0.8465382456779498
152,2979852156,17.779539108276367,-87.76034545898438,-162.20497131347656,9.792346000671388,-0.0849395245313644,0.2471801787614822,1.1124390363693235,-2.247546672821045,0.5308678150177002, ,1.2666666666666666,-0.2890893816947955
153,2979860489,17.672182083129883,-87.76384735107422,-162.09410095214844,9.81954288482666,-0.0655612349510192,0.2164471894502639,1.0839303731918335,-2.228515386581421,0.7906986474990845, ,1.275,-2.0927122235298263
154,2979868822,17.66533851623535,-87.76454162597656,-162.0824737548828,9.801523208618164,-0.071111261844635,0.2123016417026519,1.1509628295898438,-2.283355474472046,0.5981307625770569, ,1.2833333333333332,1.5790280699729244
155,2979877155,17.59262466430664,-87.76760864257812,-162.00523376464844,9.813730239868164,-0.0888085514307022,0.2427643239498138,1.2098755836486816,-2.2569985389709477,0.6345030069351196, ,1.2916666666666667,0.5963230133055806
156,2979885488,17.549198150634766,-87.76927947998047,-161.95729064941406,9.820228576660156,-0.0807694643735885,0.2222403585910797,1.1023471355438232,-2.3474936485290527,0.795821487903595, ,1.3,-0.7926240563392621
157,2979893821,17.47989845275879,-87.77217102050781,-161.88380432128906,9.815860748291016,-0.0811516121029853,0.2295539230108261,1.1718896627426147,-2.2620444297790527,0.6184172630310059, ,1.3083333333333333,1.9999319314956736
158,2979902154,17.447111129760742,-87.7724380493164,-161.84619140625,9.794611930847168,-0.0887676700949668,0.2555725574493408,1.153575420379639,-2.214862823486328,0.7032516002655029, ,1.3166666666666667,0.5369675159454363
159,2979910487,17.36653709411621,-87.77648162841797,-161.76107788085938,9.810272216796877,-0.0942361429333686,0.2385033816099167,1.205726146697998,-2.3466482162475586,0.7006646394729614, ,1.325,-2.0392665266990786
160,2979918820,17.36066246032715,-87.7779769897461,-161.75030517578125,9.803590774536133,-0.1038470864295959,0.2215847820043563,1.1624892950057983,-2.38319993019104,0.6252050995826721, ,1.3333333333333333,-0.8901670575141996
161,2979927153,17.305479049682617,-87.78167724609375,-161.6906280517578,9.844226837158203,-0.0946335569024086,0.2236672639846801,1.2116941213607788,-2.3466737270355225,0.5740790367126465, ,1.3416666666666666,0.637821257114398
162,2979935486,17.321950912475586,-87.78203582763672,-161.70208740234375,9.79872226715088,-0.0846718177199363,0.2322151362895965,1.1789848804473877,-2.30961012840271,0.4938552379608154, ,1.35,-0.08363306522372582
163,2979943819,17.269268035888672,-87.7860107421875,-161.64520263671875,9.800079345703123,-0.0906105041503906,0.2222733795642852,1.1645638942718506,-2.3385794162750244,0.5575578212738037, ,1.3583333333333334,-0.6004026532173139
164,2979952152,17.278718948364258,-87.7862777709961,-161.64926147460938,9.81208324432373,-0.0849250108003616,0.2222084254026413,1.2185076475143433,-2.2433459758758545,0.5085322260856628, ,1.3666666666666667,-0.59430330991745
165,2979960485,17.22749137878418,-87.78972625732422,-161.59332275390625,9.8058500289917,-0.0799000412225723,0.2123683243989944,1.2356947660446167,-2.365141630172729,0.5613231658935547, ,1.375,1.164215505123142
166,2979968818,17.233400344848633,-87.79070281982422,-161.59381103515625,9.825223922729492,-0.094420425593853,0.2416120171546936,1.238179326057434,-2.351848125457764,0.559991180896759, ,1.3833333333333333,-0.2452495694160497
167,2979977151,17.159332275390625,-87.79318237304688,-161.51617431640625,9.79746913909912,-0.0806513279676437,0.2082808315753936,1.0844682455062866,-2.163557529449463,0.604098916053772, ,1.3916666666666666,-1.5269699692726189
168,2979985484,17.146827697753906,-87.79283142089844,-161.49850463867188,9.819765090942385,-0.0599416084587574,0.2161625176668167,1.1867202520370483,-2.182921886444092,0.5959792137145996, ,1.4,2.0174852013588076
169,2979993817,17.07460594177246,-87.79576110839844,-161.42221069335938,9.811248779296877,-0.096877321600914,0.2419055849313736,1.1714285612106323,-2.2488527297973637,0.6225667595863342, ,1.4083333333333332,2.0446756482124417
170,2980002150,17.05079460144043,-87.79576110839844,-161.39271545410156,9.788122177124023,-0.0828641876578331,0.2502404451370239,1.2478102445602417,-2.167041063308716,0.6472845673561096, ,1.4166666666666667,-0.8077222108841386
171,2980010483,16.97238540649414,-87.79930877685547,-161.3108673095703,9.80947971343994,-0.0868195816874504,0.2284435480833053,1.0736078023910522,-2.253796339035034,0.6498203277587891, ,1.425,-2.180742323398599
172,2980018816,16.960142135620117,-87.79877471923828,-161.29397583007812,9.799986839294434,-0.0992038398981094,0.2138947397470474,1.12419593334198,-2.157179832458496,0.5834026336669922, ,1.4333333333333333,0.8921983838081413
173,2980027149,16.899192810058594,-87.80091857910156,-161.2291259765625,9.830498695373535,-0.0898740366101265,0.2433135211467743,1.1398718357086182,-2.1948835849761963,0.5502065420150757, ,1.4416666666666667,0.07406383752822521
174,2980035482,16.91162109375,-87.80055236816406,-161.23634338378906,9.819014549255373,-0.0857723280787468,0.2151291370391845,1.1947120428085327,-2.172292232513428,0.4717757999897003, ,1.45,-1.1032193899154734
175,2980043815,16.882774353027344,-87.80136108398438,-161.20338439941406,9.794770240783691,-0.0716253221035003,0.2249265313148498,1.15380597114563,-2.090787410736084,0.3649387955665588, ,1.4583333333333333,2.0320853590965378
176,2980052148,16.88136863708496,-87.80020141601562,-161.1973419189453,9.844691276550291,-0.0792968571186065,0.24899722635746,1.131393551826477,-2.0825140476226807,0.5084041357040405, ,1.4666666666666666,-0.1924842596053189
177,2980060481,16.826143264770508,-87.8035888671875,-161.13739013671875,9.765653610229492,-0.0734842792153358,0.2217184603214264,1.2368217706680298,-2.3426778316497803,0.5720298886299133, ,1.475,-1.8112125992774448
178,2980068814,16.830751419067383,-87.80411529541016,-161.1363067626953,9.838926315307615,-0.0854638516902923,0.218810349702835,1.2530099153518677,-2.274415969848633,0.5426504015922546, ,1.4833333333333334,0.13564467430114213
179,2980077147,16.807767868041992,-87.8071517944336,-161.10926818847656,9.797993659973145,-0.0969776511192321,0.2239792048931121,1.1610803604125977,-2.324824810028076,0.4080219566822052, ,1.4916666666666667,2.50652074813844
180,2980085480,16.798934936523438,-87.80724334716797,-161.09619140625,9.807819366455078,-0.0828821808099746,0.2605856955051422,1.0808310508728027,-2.238607168197632,0.5898317694664001, ,1.5,0.24194329977036055
181,2980093813,16.769168853759766,-87.8108139038086,-161.0618133544922,9.786505699157717,-0.0907470434904098,0.2280115932226181,1.2206591367721558,-2.388040542602539,0.4618374407291412, ,1.5083333333333333,-1.738201081752786
182,2980102146,16.771270751953125,-87.81018829345703,-161.05917358398438,9.801971435546877,-0.0948825478553772,0.2316156774759292,1.1461728811264038,-2.144526243209839,0.5108886361122131, ,1.5166666666666666,0.14357149600982488
183,2980110479,16.717130661010742,-87.81314086914062,-161.0016326904297,9.794081687927246,-0.0863735899329185,0.2304044514894485,1.0903083086013794,-2.267423391342163,0.5378349423408508, ,1.525,1.5653023123741239
184,2980118812,16.71861457824707,-87.81314086914062,-160.99896240234375,9.81234073638916,-0.0687080919742584,0.2577040493488312,1.0633366107940674,-2.225288152694702,0.5343001484870911, ,1.5333333333333332,0.3213804960251654
185,2980127145,16.654296875,-87.81627655029297,-160.93099975585938,9.8388090133667,-0.0680929571390152,0.2357607930898666,1.1131563186645508,-2.284021377563477,0.5912662148475647, ,1.5416666666666667,0.3865456581116433
186,2980135478,16.638269424438477,-87.8166275024414,-160.91053771972656,9.792276382446287,-0.0848010256886482,0.264146476984024,1.0989658832550049,-2.2398881912231445,0.6260247230529785, ,1.55,-1.8544265627861094
187,2980143811,16.566131591796875,-87.82012939453125,-160.8352813720703,9.818296432495115,-0.1002408042550087,0.2048536837100982,1.046405553817749,-2.3246712684631348,0.6370388865470886, ,1.5583333333333333,-2.3865875601768565
188,2980152144,16.55963706970215,-87.82102966308594,-160.82432556152344,9.820737838745115,-0.0817049592733383,0.2243700176477432,1.1042169332504272,-2.313093423843384,0.6007434725761414, ,1.5666666666666667,3.2711881399154805
189,2980160477,16.49311065673828,-87.82444763183594,-160.75399780273438,9.78958511352539,-0.0853288173675537,0.2593734860420227,1.137463927268982,-2.307765483856201,0.6081972122192383, ,1.575,2.351818978786479
190,2980168810,16.510202407836914,-87.82426452636719,-160.76629638671875,9.816495895385742,-0.102726362645626,0.2635670006275177,1.149630784988403,-2.2193708419799805,0.4629900753498077, ,1.5833333333333333,-0.6054487824440056
191,2980177143,16.480453491210938,-87.8274154663086,-160.73251342773438,9.798053741455078,-0.0941051989793777,0.2492826730012893,1.1515007019042969,-2.352565288543701,0.4481851160526275, ,1.5916666666666666,-2.5330102443694624
192,2980185476,16.522541046142578,-87.82913208007812,-160.76942443847656,9.824522018432615,-0.0823192372918129,0.2213501632213592,1.1929446458816528,-2.4410879611968994,0.4105577766895294, ,1.6,-2.343311905860851
193,2980193809,16.490297317504883,-87.83102416992188,-160.733154296875,9.7896146774292,-0.1137194260954856,0.2102274745702743,1.1619001626968384,-2.209381580352783,0.4189592599868774, ,1.6083333333333334,3.613797426223769
194,2980202142,16.52639389038086,-87.83102416992188,-160.76478576660156,9.816635131835938,-0.0763672962784767,0.2815801203250885,1.1144882440567017,-2.279564619064331,0.3892723619937897, ,1.6166666666666667,0.12180179357529042
195,2980210475,16.504375457763672,-87.83354949951172,-160.7393341064453,9.824909210205078,-0.0774396210908889,0.2122575044631958,1.079038143157959,-2.261122465133667,0.3816905319690704, ,1.625,-3.9365288615226905
196,2980218808,16.517330169677734,-87.83354949951172,-160.74765014648438,9.820974349975586,-0.0926639437675476,0.2159713059663772,1.1307789087295532,-2.235687494277954,0.4860173165798187, ,1.6333333333333333,1.1584559082984942
197,2980227141,16.465028762817383,-87.83599090576172,-160.69146728515625,9.79368782043457,-0.0889417305588722,0.2315651029348373,1.1185096502304075,-2.2252111434936523,0.5159091949462891, ,1.6416666666666666,1.9647619128227287
198,2980235474,16.446929931640625,-87.83662414550781,-160.66925048828125,9.83581256866455,-0.0772337242960929,0.2487173378467559,1.069125413894653,-2.267295360565185,0.6402150392532349, ,1.65,-0.846236944198612
199,2980243807,16.406600952148438,-87.84015655517578,-160.6253662109375,9.81274127960205,-0.1043301150202751,0.2174611538648605,1.1006821393966677,-2.3585076332092285,0.4962886571884155, ,1.6583333333333332,0.3772956132887728
200,2980252140,16.423320770263672,-87.84024047851562,-160.6376953125,9.795029640197754,-0.0946057438850402,0.2550055980682373,1.0991195440292358,-2.2586889266967773,0.4747726321220398, ,1.6666666666666667,0.07292479276645025
201,2980260473,16.37454605102539,-87.84269714355469,-160.5859832763672,9.813372611999512,-0.0806098654866218,0.2186765670776367,1.0154892206192017,-2.2272603511810303,0.4954945743083954, ,1.675,-1.6605296730995285
202,2980268806,16.39154052734375,-87.84297180175781,-160.59815979003906,9.819279670715332,-0.1004174724221229,0.2273301035165786,1.156649112701416,-2.267090320587158,0.477538913488388, ,1.6833333333333333,2.1288549900055003
203,2980277139,16.367530822753906,-87.84568786621094,-160.56991577148438,9.794756889343262,-0.0986735373735427,0.2541574835777282,1.168073296546936,-2.3128886222839355,0.411018818616867, ,1.6916666666666667,1.006083190441137
204,2980285472,16.39443588256836,-87.84668731689453,-160.59161376953125,9.8496675491333,-0.0835213437676429,0.2440981566905975,1.191279649734497,-2.344521999359131,0.4543837308883667, ,1.7,-1.6157135367393565
205,2980293805,16.357921600341797,-87.84886932373047,-160.55233764648438,9.781730651855469,-0.0634651035070419,0.2272289246320724,1.0059607028961182,-2.2355849742889404,0.4408082067966461, ,1.7083333333333333,-1.996048986911779
206,2980302138,16.367443084716797,-87.84805297851562,-160.55743408203125,9.839421272277832,-0.0840091258287429,0.2108306735754013,1.1075468063354492,-2.162712335586548,0.4791270494461059, ,1.7166666666666666,-1.8427097797393852
207,2980310471,16.317691802978516,-87.85069274902344,-160.50494384765625,9.812867164611816,-0.0834194123744964,0.1965170949697494,0.9926924705505372,-2.263632297515869,0.5111960768699646, ,1.7249999999999999,3.0421641469000225
208,2980318804,16.30714225769043,-87.84978485107422,-160.48960876464844,9.803062438964844,-0.0713923722505569,0.2615334093570709,1.1446106433868408,-2.107078313827514,0.559197187423706, ,1.7333333333333334,1.922867596149267
209,2980327137,16.25180435180664,-87.85187530517578,-160.43011474609375,9.796834945678713,-0.0889545977115631,0.2285648882389068,1.1560343503952026,-2.198546886444092,0.5235934257507324, ,1.7416666666666667,-2.0612454414367765
210,2980335470,16.250465393066406,-87.85334014892578,-160.42454528808594,9.818035125732422,-0.0751511305570602,0.2271793186664581,1.0828802585601809,-2.3850696086883545,0.5950314998626709, ,1.75,-0.5386197566986102
211,2980343803,16.18027687072754,-87.85607147216797,-160.34983825683594,9.808728218078612,-0.0690124481916427,0.21958789229393,1.1918174028396606,-2.192680835723877,0.5914967060089111, ,1.7583333333333333,-0.3525575995445287
212,2980352136,16.168533325195312,-87.85698699951172,-160.33303833007812,9.827509880065918,-0.095092661678791,0.2213033586740493,1.1740669012069702,-2.317422389984131,0.6280226707458496, ,1.7666666666666666,0.749141871929174
213,2980360469,16.08894157409668,-87.85871887207031,-160.2492218017578,9.804160118103027,-0.0556242987513542,0.2320735901594162,1.1729398965835571,-2.138967990875244,0.6202359199523926, ,1.775,0.5429407954216039
214,2980368802,16.074676513671875,-87.85954284667969,-160.23057556152344,9.811482429504396,-0.0963030084967613,0.230352371931076,1.0982487201690674,-2.280435085296631,0.6255636215209961, ,1.7833333333333332,-0.5151298642158384
215,2980377135,16.003488540649414,-87.86119079589844,-160.1553497314453,9.826519966125488,-0.0869074091315269,0.2234880924224853,1.1423051357269287,-2.130335807800293,0.575513482093811, ,1.7916666666666667,1.0008761286735925
216,2980385468,15.996407508850098,-87.86064147949219,-160.1443634033203,9.822066307067873,-0.1100057289004325,0.2470336407423019,1.0422048568725586,-2.142297744750977,0.5499248504638672, ,1.8,1.1109915375709605
217,2980393801,15.90760612487793,-87.86210632324219,-160.05245971679688,9.818804740905762,-0.0838089063763618,0.2420046180486679,1.0231990814208984,-2.0773401260375977,0.6393440961837769, ,1.8083333333333333,-1.9167566299438583
218,2980402134,15.915797233581545,-87.86183166503906,-160.05702209472656,9.832083702087402,-0.0782554224133491,0.2150876969099044,1.0213804244995115,-2.1956775188446045,0.4935990571975708, ,1.8166666666666667,-0.49748808145523604
219,2980410467,15.864745140075684,-87.86457824707031,-160.00277709960938,9.82919692993164,-0.0934710875153541,0.233713150024414,1.0368002653121948,-2.2719316482543945,0.5183680653572083, ,1.825,-0.170346200466156
220,2980418800,15.867198944091797,-87.86439514160156,-160.00045776367188,9.81178855895996,-0.0738301873207092,0.2122485935688018,1.1437909603118896,-2.219627141952514,0.532584011554718, ,1.8333333333333333,2.3316603899002164
221,2980427133,15.787644386291504,-87.86742401123047,-159.91758728027344,9.812397956848145,-0.0706046521663665,0.2725741565227508,1.066794514656067,-2.2799232006073,0.653380811214447, ,1.8416666666666666,0.7660943269729632
222,2980435466,15.767913818359377,-87.86769104003906,-159.89381408691406,9.79952335357666,-0.0888916924595832,0.2250168323516845,1.0505551099777222,-2.191323518753052,0.6234633326530457, ,1.8499999999999999,-3.5641711950302284
223,2980443799,15.70561695098877,-87.8707275390625,-159.82791137695312,9.822582244873049,-0.0769830420613288,0.2131713032722473,1.1042168140411377,-2.3129141330718994,0.583966076374054, ,1.8583333333333334,0.15022873878483267
224,2980452132,15.695239067077637,-87.87127685546875,-159.81236267089844,9.821481704711914,-0.0779952853918075,0.2275206446647644,1.1917407512664795,-2.262556791305542,0.6060456037521362, ,1.8666666666666667,3.6486858129501485
225,2980460465,15.606470108032228,-87.87394714355469,-159.71961975097656,9.80941390991211,-0.0905720740556716,0.2739827334880829,1.1387962102890017,-2.2332026958465576,0.6853729486465454, ,1.875,0.24318695068359197
226,2980468798,15.587567329406738,-87.8747787475586,-159.69580078125,9.799843788146973,-0.1081052049994468,0.2315737605094909,1.166792392730713,-2.3096611499786377,0.6567361354827881, ,1.8833333333333333,-2.148761451244363
227,2980477131,15.495423316955566,-87.87744903564453,-159.5997314453125,9.832834243774414,-0.0786084830760955,0.2381700426340103,1.1236836910247805,-2.1974966526031494,0.689599335193634, ,1.8916666666666666,0.4008105397224426
228,2980485464,15.47958755493164,-87.87726593017578,-159.57920837402344,9.798517227172852,-0.0844490155577659,0.2382539361715316,1.137720227241516,-2.1985208988189697,0.6107586026191711, ,1.9,-1.203331947326669
229,2980493797,15.403524398803713,-87.87920379638672,-159.49913024902344,9.81084442138672,-0.0942531824111938,0.2181145101785659,1.1273465156555176,-2.1420671939849854,0.6007434725761414, ,1.9083333333333332,-1.7217770218849129
230,2980502130,15.385994911193848,-87.87882995605469,-159.476806640625,9.838661193847656,-0.0855248868465423,0.2095576524734497,1.149912714958191,-2.1553869247436523,0.6063273549079895, ,1.9166666666666667,-1.5270468592643702
231,2980510463,15.311209678649902,-87.8809585571289,-159.3990020751953,9.79792308807373,-0.0965858921408653,0.1926637291908264,1.019689917564392,-2.1677584648132324,0.5964658856391907, ,1.925,2.5719845294952446
232,2980518796,15.31240177154541,-87.88067626953125,-159.396484375,9.787612915039062,-0.0840794146060943,0.2524240612983703,1.024326205253601,-2.1879425048828125,0.5242593884468079, ,1.9333333333333333,2.9322758316993838
233,2980527129,15.247750282287598,-87.8827133178711,-159.32757568359375,9.833186149597168,-0.0945076420903205,0.2415349930524826,1.1618489027023315,-2.18312668800354,0.5603498220443726, ,1.9416666666666667,-2.540035843849191
234,2980535462,15.250738143920898,-87.88317108154297,-159.32537841796875,9.798584938049316,-0.068946473300457,0.2100901305675506,1.1965817213058472,-2.3131957054138184,0.5561746954917908, ,1.95,-0.03648072481155573
235,2980543795,15.185165405273438,-87.88539123535156,-159.2561798095703,9.823193550109863,-0.0764627307653427,0.24092698097229,1.1039352416992188,-2.181948661804199,0.561451256275177, ,1.9583333333333333,1.1545711755752635
236,2980552128,15.168485641479492,-87.88548278808594,-159.23500061035156,9.824718475341797,-0.0808249861001968,0.2293329834938049,1.0988634824752808,-2.178260087966919,0.6068140268325806, ,1.9666666666666666,0.22358268499374567
237,2980560461,15.091026306152344,-87.88733673095703,-159.1545867919922,9.793569564819336,-0.0978268012404441,0.2446533590555191,1.0279632806777954,-2.1550281047821045,0.6056101322174072, ,1.9749999999999999,-0.4313153028487502
238,2980568794,15.086938858032228,-87.88733673095703,-159.14529418945312,9.831116676330566,-0.0943080559372901,0.2221443951129913,1.189409852027893,-2.190375566482544,0.5559185743331909, ,1.9833333333333334,-0.03565549850457295
239,2980577127,15.026546478271484,-87.8884506225586,-159.08143615722656,9.810028076171877,-0.098579503595829,0.2440591007471084,1.0793967247009275,-2.110971689224243,0.5179070234298706, ,1.9916666666666667,-0.25295644998550415
240,2980585460,15.016804695129396,-87.88770294189453,-159.06637573242188,9.80833625793457,-0.0645178481936454,0.2179284542798996,1.218251347541809,-2.1179895401000977,0.5627831816673279, ,2.0,-0.47934025526046753
241,2980593793,14.941043853759766,-87.8901138305664,-158.98605346679688,9.83436393737793,-0.0975296273827552,0.2360700964927673,1.20728862285614,-2.248648166656494,0.6311219930648804, ,2.0083333333333333,-0.11975258588791249
242,2980602126,14.953900337219238,-87.89039611816406,-158.993408203125,9.798664093017578,-0.0882981121540069,0.2159325778484344,1.233747959136963,-2.279282808303833,0.5045875906944275, ,2.0166666666666666,2.0283168554306137
243,2980610459,14.897584915161133,-87.89373779296875,-158.93331909179688,9.811424255371094,-0.0746497884392738,0.2698753774166107,1.1047035455703735,-2.354844570159912,0.5644736886024475, ,2.025,0.008544623851776123
244,2980618792,14.910991668701172,-87.8939208984375,-158.94261169433594,9.814302444458008,-0.093203954398632,0.216074988245964,1.0672043561935425,-2.2655282020568848,0.4913707077503204, ,2.033333333333333,-1.8036112189293032
245,2980627125,14.827324867248535,-87.89681243896484,-158.855224609375,9.82638454437256,-0.0772824436426162,0.2398151904344558,1.1093652248382568,-2.225671768188477,0.654738187789917, ,2.0416666666666665,0.2960586547851616
246,2980635458,14.798219680786133,-87.89671325683594,-158.82052612304688,9.806674003601074,-0.0852598026394844,0.22100929915905,1.2364888191223145,-2.163532018661499,0.6635239720344543, ,2.05,-1.483543217182163
247,2980643791,14.735898971557615,-87.8998794555664,-158.7533416748047,9.797025680541992,-0.06439109146595,0.2150894701480865,1.2531380653381348,-2.325439691543579,0.5910100936889648, ,2.058333333333333,2.0240727066993784
248,2980652124,14.70817756652832,-87.90015411376953,-158.7208251953125,9.829917907714844,-0.0907575488090515,0.2547438442707062,1.1460448503494265,-2.2484686374664307,0.675895631313324, ,2.0666666666666664,1.9967865943909722
249,2980660457,14.631933212280272,-87.90258026123047,-158.6403045654297,9.794110298156738,-0.0823282375931739,0.2483692467212677,1.1601072549819946,-2.2271320819854736,0.6235401630401611, ,2.075,-1.0812512040138191
250,2980668790,14.62667465209961,-87.90314483642578,-158.63003540039062,9.838865280151367,-0.0913221091032028,0.2367229908704757,1.1767051219940186,-2.274031400680542,0.581660807132721, ,2.0833333333333335,-2.745475172996535
251,2980677123,14.55705738067627,-87.90595245361328,-158.55618286132812,9.79567050933838,-0.0975043550133705,0.2026113271713256,1.1570076942443848,-2.266911029815674,0.6036121845245361, ,2.091666666666667,-1.36193543672562
252,2980685456,14.540977478027344,-87.90595245361328,-158.53512573242188,9.806796073913574,-0.0811032876372337,0.2140240669250488,1.1753731966018677,-2.2234182357788086,0.6177769303321838, ,2.1,-0.5301904678344744
253,2980693789,14.48533535003662,-87.90763092041016,-158.4762420654297,9.84047794342041,-0.0912407338619232,0.1937748193740844,1.0385675430297852,-2.137815237045288,0.5003868937492371, ,2.1083333333333334,0.310382544994356
254,2980702122,14.498980522155762,-87.90763092041016,-158.485595703125,9.809000968933104,-0.0994241759181022,0.2191971093416214,1.1006051301956177,-2.249826431274414,0.4874260425567627, ,2.1166666666666667,1.5644073486328196
255,2980710455,14.453726768493652,-87.9102554321289,-158.43661499023438,9.817999839782717,-0.0824422910809516,0.2198482751846313,1.097813367843628,-2.260994434356689,0.4885275363922119, ,2.125,2.6017919182777476
256,2980718788,14.4819974899292,-87.90931701660156,-158.46078491210938,9.823172569274902,-0.0751314610242843,0.2625603079795837,1.075272798538208,-2.1708579063415527,0.4006962776184082, ,2.1333333333333333,1.074983775615694
257,2980727121,14.438895225524902,-87.91015625,-158.41339111328125,9.79405403137207,-0.0970416292548179,0.2377646714448928,1.1701223850250244,-2.057386636734009,0.4284621477127075, ,2.1416666666666666,-3.227165043354047
258,2980735454,14.450922012329102,-87.90921783447266,-158.42088317871094,9.841323852539062,-0.0925244688987732,0.2087742239236831,1.1180741786956787,-2.142169713973999,0.4678824245929718, ,2.15,-2.268661558628091
259,2980743787,14.384207725524902,-87.91118621826172,-158.35040283203125,9.82369613647461,-0.1113076731562614,0.1999536454677581,1.1163580417633057,-2.1887876987457275,0.5687512755393982, ,2.158333333333333,4.619013369083422
260,2980752120,14.399285316467283,-87.91043853759766,-158.36083984375,9.813488960266112,-0.0857693403959274,0.2857577800750732,1.1325206756591797,-2.1333329677581787,0.451130747795105, ,2.1666666666666665,1.1002036929130607
261,2980760453,14.346691131591797,-87.9124984741211,-158.3035888671875,9.795650482177734,-0.0926166772842407,0.2182903736829757,1.213666558265686,-2.2375829219818115,0.5223382711410522, ,2.175,-4.5487788319587885
262,2980768786,14.361422538757324,-87.91278076171875,-158.31314086914062,9.85634422302246,-0.0703025162220001,0.209944799542427,1.195890188217163,-2.2572543621063232,0.4879127442836761, ,2.183333333333333,0.9500455856323295
263,2980777119,14.303902626037598,-87.91513061523438,-158.25193786621094,9.789453506469728,-0.0995838269591331,0.2341244667768478,1.0861331224441528,-2.246778011322021,0.5406011343002319, ,2.1916666666666664,2.398583292961094
264,2980785452,14.334637641906738,-87.91559600830078,-158.27850341796875,9.807003021240234,-0.0622467510402202,0.2499211877584457,1.0825984477996826,-2.302924394607544,0.4228782057762146, ,2.2,-0.6501621007920502
265,2980793785,14.26872730255127,-87.91888427734375,-158.20851135253906,9.823719024658203,-0.1026171222329139,0.223288431763649,1.143995761871338,-2.360300064086914,0.6101951003074646, ,2.2083333333333335,-3.291853666305551
266,2980802118,14.300753593444824,-87.91935729980469,-158.2366485595703,9.790016174316406,-0.0985704585909843,0.1950569599866867,1.0500683784484863,-2.308150053024292,0.4171918630599975, ,2.216666666666667,1.3497778773307854
267,2980810451,14.2677640914917,-87.92302703857422,-158.2002410888672,9.833710670471191,-0.0669084414839744,0.245784729719162,1.064771056175232,-2.370290279388428,0.4609153568744659, ,2.225,1.453578472137453
268,2980818784,14.29429817199707,-87.9231185913086,-158.22259521484375,9.794672966003418,-0.1001297682523727,0.2192832678556442,1.075272798538208,-2.250389814376831,0.4296915829181671, ,2.2333333333333334,-1.4025485515594553
269,2980827117,14.243427276611328,-87.92472839355469,-158.16751098632812,9.8235502243042,-0.0918458700180053,0.2224089205265045,1.167356014251709,-2.1937055587768555,0.4997977614402771, ,2.2416666666666667,0.34552931785583496
270,2980835450,14.275943756103516,-87.92491149902344,-158.19631958007812,9.821084022521973,-0.0838562175631523,0.2250420898199081,1.0317797660827637,-2.308662176132202,0.4143230617046356, ,2.25,-0.830586254596712
271,2980843783,14.230667114257812,-87.92774200439453,-158.1472930908203,9.80039405822754,-0.0851382613182067,0.208565816283226,1.103883981704712,-2.29465126991272,0.499772161245346, ,2.2583333333333333,-1.112136840820316
272,2980852116,14.261241912841797,-87.92821502685547,-158.17373657226562,9.821131706237791,-0.090291641652584,0.2065064758062362,1.070969581604004,-2.2877867221832275,0.4208803474903106, ,2.2666666666666666,4.271495640277873
273,2980860449,14.224034309387209,-87.93095397949219,-158.1328582763672,9.798287391662598,-0.069591537117958,0.279757410287857,1.0864661931991575,-2.3333287239074707,0.4727747142314911, ,2.275,0.5058887600898796
274,2980868782,14.244330406188965,-87.93199920654297,-158.14878845214844,9.80516529083252,-0.0973288416862487,0.2149379551410675,1.1037559509277344,-2.344547748565674,0.4823545217514038, ,2.283333333333333,-5.119582414627089
275,2980877115,14.205538749694824,-87.93511962890625,-158.10638427734375,9.829954147338867,-0.0866160839796066,0.1944310367107391,1.0909743309020996,-2.370443820953369,0.4886299669742584, ,2.2916666666666665,0.10819852352141979
276,2980885448,14.198898315429688,-87.93540954589844,-158.09523010253906,9.8214111328125,-0.0619695670902729,0.2167412638664245,1.1219931840896606,-2.2696261405944824,0.5841711163520813, ,2.3,2.1326467394828885
277,2980893781,14.11079216003418,-87.93787384033203,-158.00340270996094,9.797778129577637,-0.0905139073729515,0.2299751490354538,1.093638300895691,-2.264016628265381,0.6824016571044922, ,2.308333333333333,-0.3589823842048627
278,2980902114,14.09764289855957,-87.93930053710938,-157.9855499267578,9.815757751464844,-0.087081141769886,0.2107582241296768,1.1390008926391602,-2.3543577194213867,0.6340675354003906, ,2.3166666666666664,-1.5267241001129221
279,2980910447,14.042296409606934,-87.94253540039062,-157.9261932373047,9.811772346496582,-0.0864020735025405,0.2045297473669052,1.1367982625961304,-2.325721502304077,0.5521532297134399, ,2.325,3.4501370787621983
280,2980918780,14.036057472229004,-87.94367218017578,-157.91537475585938,9.787016868591309,-0.1024350821971893,0.268260508775711,1.1247081756591797,-2.338758707046509,0.5986686944961548, ,2.3333333333333335,-1.5260356664657646
281,2980927113,13.973962783813477,-87.94757843017578,-157.84902954101562,9.790803909301758,-0.073650062084198,0.1790958195924759,1.156546711921692,-2.404766798019409,0.603509783744812, ,2.341666666666667,-3.028783500194562
282,2980935446,13.963252067565918,-87.94786834716797,-157.83462524414062,9.839214324951172,-0.0783639252185821,0.2177807837724685,1.021764636039734,-2.25789475440979,0.594493567943573, ,2.35,2.0826208591461253
283,2980943779,13.93179988861084,-87.95005798339844,-157.79901123046875,9.779379844665527,-0.1032756641507148,0.2138061672449112,1.1571359634399414,-2.220472574234009,0.4211876988410949, ,2.3583333333333334,0.8669275045394969
284,2980952112,13.954768180847168,-87.9505386352539,-157.8175048828125,9.80863094329834,-0.0783816426992416,0.2322295755147934,1.107982158660889,-2.320496082305908,0.464987963438034, ,2.3666666666666667,-0.852994322776798
285,2980960445,13.92385482788086,-87.95263671875,-157.78262329101562,9.775094032287598,-0.1043756455183029,0.1995895951986313,1.1500918865203855,-2.258176565170288,0.4266434907913208, ,2.375,0.2406209707260114
286,2980968778,13.959844589233398,-87.95225524902344,-157.81405639648438,9.85218620300293,-0.0896734595298767,0.2362399250268936,1.1227105855941772,-2.22533917427063,0.3847642540931701, ,2.3833333333333333,4.011282026767741
287,2980977111,13.922741889953612,-87.9535903930664,-157.77340698242188,9.793503761291504,-0.0739707127213478,0.2664442956447601,1.0779623985290527,-2.1255462169647217,0.4201118648052215, ,2.3916666666666666,-0.18476843833923517
288,2980985444,13.947858810424805,-87.95378112792969,-157.79400634765625,9.82864475250244,-0.0907169058918953,0.233160451054573,1.108494520187378,-2.276541948318481,0.4445222616195678, ,2.4,-2.285077571868902
289,2980993777,13.900726318359377,-87.95646667480469,-157.7436065673828,9.769145965576172,-0.1031466796994209,0.2283596694469452,1.0635926723480225,-2.292550802230835,0.5038960576057434, ,2.408333333333333,1.8697187304496872
290,2981002110,13.939244270324709,-87.9562759399414,-157.77748107910156,9.817062377929688,-0.0836841017007827,0.264322429895401,1.123709201812744,-2.236378669738769,0.3766957521438598, ,2.4166666666666665,-1.2760296463966405
291,2981010443,13.940072059631348,-87.95828247070312,-157.77427673339844,9.81101131439209,-0.0780095383524894,0.2070925086736679,1.1408195495605469,-2.2854299545288086,0.2956523001194, ,2.425,-2.002898454666145
292,2981018776,13.983141899108888,-87.95799255371094,-157.8137969970703,9.828103065490724,-0.0925504490733146,0.2309407889842987,1.013593673706055,-2.226670980453491,0.3489042818546295, ,2.433333333333333,1.435265243053438
293,2981027109,13.95748519897461,-87.96039581298828,-157.78517150878906,9.827364921569824,-0.0759888365864753,0.2310135960578918,1.019664287567139,-2.3218793869018555,0.4179603159427643, ,2.4416666666666664,0.3758016228675558
294,2981035442,13.961504936218262,-87.96029663085938,-157.7854461669922,9.849610328674316,-0.1011571362614631,0.2372041493654251,1.0146182775497437,-2.193935871124268,0.5138599872589111, ,2.45,0.66435813903807
295,2981043775,13.895194053649902,-87.96163940429688,-157.71510314941406,9.796650886535645,-0.0873859375715255,0.2420862317085266,1.1467877626419067,-2.1286966800689697,0.5540231466293335, ,2.4583333333333335,-0.5957221984863335
296,2981052108,13.891921997070312,-87.96231079101562,-157.70721435546875,9.813515663146973,-0.0520930811762809,0.2272754460573196,1.123197078704834,-2.310019969940185,0.5790226459503174, ,2.466666666666667,-1.2074643373489415
297,2981060441,13.823175430297852,-87.96548461914062,-157.6342010498047,9.813798904418944,-0.0782462880015373,0.2219618260860443,1.1653069257736206,-2.3187029361724854,0.6100926995277405, ,2.475,-2.2660911083221524
298,2981068774,13.81723976135254,-87.96683502197266,-157.62271118164062,9.819530487060549,-0.0963539630174636,0.1895072609186172,1.2433022260665894,-2.3709816932678223,0.6098877787590027, ,2.4833333333333334,-1.7790609598159879
299,2981077107,13.764639854431152,-87.96904754638672,-157.56561279296875,9.810770988464355,-0.0560889989137649,0.1923108100891113,1.1948399543762207,-2.276695728302002,0.5319435596466064, ,2.4916666666666667,3.3819678425788986
300,2981085440,13.742594718933104,-87.96875762939453,-157.53868103027344,9.833015441894531,-0.0858929082751274,0.2458733916282653,1.1630016565322876,-2.1651203632354736,0.6251794695854187, ,2.5,2.19099372625352
301,2981093773,13.683448791503906,-87.97049713134766,-157.4750213623047,9.812162399291992,-0.0980335548520088,0.2288273721933365,1.1882059574127195,-2.159843683242798,0.5314825773239136, ,2.5083333333333333,2.0572006702423202
302,2981102106,13.700342178344728,-87.96952819824219,-157.4871368408203,9.824029922485352,-0.0937416851520538,0.2801600694656372,1.150194525718689,-2.120551347732544,0.4438562989234924, ,2.5166666666666666,-1.6728338599205106
303,2981110439,13.643425941467283,-87.97049713134766,-157.42666625976562,9.815744400024414,-0.090842455625534,0.2009468078613281,1.0813690423965454,-2.114275932312012,0.5063549876213074, ,2.525,-4.722682535648362
304,2981118772,13.652779579162598,-87.9697265625,-157.4316864013672,9.808189392089844,-0.0921283215284347,0.2014486938714981,1.0980437994003296,-2.1285431385040283,0.4779232442378998, ,2.533333333333333,1.8209829926490855
305,2981127105,13.60093879699707,-87.97020721435547,-157.37515258789062,9.82603359222412,-0.0988363400101661,0.2312965244054794,1.203702449798584,-2.040839672088623,0.4717245697975158, ,2.5416666666666665,3.979413807392133
306,2981135438,13.631757736206056,-87.9691390991211,-157.40191650390625,9.82520580291748,-0.0813941285014152,0.2677722573280334,1.0619021654129028,-2.1181180477142334,0.3794620931148529, ,2.55,-1.7208373546600377
307,2981143771,13.583016395568848,-87.97000885009766,-157.3502655029297,9.816511154174805,-0.0708628147840499,0.2026159018278122,1.0190495252609253,-2.1217808723449707,0.4712634682655334, ,2.558333333333333,-2.670898139476787
308,2981152104,13.561574935913086,-87.96943664550781,-157.32395935058594,9.7858247756958,-0.0924602076411247,0.2232572883367538,1.1481451988220217,-2.1093578338623047,0.6105537414550781, ,2.5666666666666664,1.857078373432147
309,2981160437,13.488205909729004,-87.9714584350586,-157.2463836669922,9.78097152709961,-0.0817953869700431,0.2335672080516815,1.166254639625549,-2.175007104873657,0.596440315246582, ,2.575,-0.3692275285721571
310,2981168770,13.430502891540527,-87.97135925292969,-157.18321228027344,9.88520336151123,-0.0890730842947959,0.2171034961938858,1.222324013710022,-2.178541898727417,0.7873687148094177, ,2.5833333333333335,0.83729088306427
311,2981177103,13.333294868469238,-87.97135925292969,-157.08157348632812,9.795305252075195,-0.1009937152266502,0.2475220561027526,1.159671664237976,-1.9512667655944824,0.6487700939178467, ,2.591666666666667,1.5009149909019524
312,2981185436,13.323897361755373,-87.9716567993164,-157.06735229492188,9.77475357055664,-0.0913803875446319,0.2421187460422516,1.1701735258102417,-2.254718780517578,0.5917784571647644, ,2.6,0.10764241218567072
313,2981193769,13.248870849609377,-87.97445678710938,-156.98794555664062,9.771685600280762,-0.1034719794988632,0.2493160963058471,1.1670998334884644,-2.3025918006896973,0.6336833834648132, ,2.6083333333333334,1.2676781415939349
314,2981202102,13.239442825317385,-87.97415924072266,-156.97360229492188,9.885777473449709,-0.0712127983570098,0.2632467150688171,1.1710954904556274,-2.1725738048553467,0.5738741159439087, ,2.6166666666666667,-1.8605402112007212
315,2981210435,13.181930541992188,-87.97686767578125,-156.9122314453125,9.784558296203612,-0.1033326387405395,0.2183070927858352,1.098658561706543,-2.2405025959014893,0.5404987335205078, ,2.625,-1.8018320202827525
316,2981218768,13.196858406066896,-87.97715759277344,-156.92242431640625,9.74903964996338,-0.0953496992588043,0.233216181397438,1.1493747234344482,-2.282407522201538,0.4921391010284424, ,2.6333333333333333,1.6101711988449168
317,2981227101,13.14626407623291,-87.98015594482422,-156.86814880371094,9.77527141571045,-0.0860761404037475,0.2451432794332504,1.0806773900985718,-2.350310802459717,0.5359394550323486, ,2.6416666666666666,-2.5581380724906975
318,2981235434,13.146220207214355,-87.97987365722656,-156.863525390625,9.89346408843994,-0.0942632034420967,0.1905805468559265,1.131829023361206,-2.212301731109619,0.5400377511978149, ,2.65,-0.7628452777862602
319,2981243767,13.08803367614746,-87.9817123413086,-156.80140686035156,9.8073148727417,-0.0575201362371444,0.2324291914701461,1.1146419048309326,-2.222700834274292,0.5400377511978149, ,2.658333333333333,4.359192252159135
320,2981252100,13.110040664672852,-87.98258209228516,-156.81858825683594,9.743972778320312,-0.1083963215351104,0.2632337510585785,1.1535755395889282,-2.340398073196411,0.4755154252052307, ,2.6666666666666665,1.6109070181846725
321,2981260433,13.074448585510254,-87.98666381835938,-156.77813720703125,9.852779388427734,-0.0788378193974495,0.2592776417732239,1.223476767539978,-2.4719274044036865,0.5040754079818726, ,2.675,-2.7910450100898885
322,2981268766,13.10304069519043,-87.98783111572266,-156.80191040039062,9.866236686706545,-0.093606449663639,0.2167163342237472,1.1682525873184204,-2.3991830348968506,0.4616838097572326, ,2.683333333333333,-4.7473096847534375
323,2981277099,13.068591117858888,-87.99075317382812,-156.76254272460938,9.745112419128418,-0.0704383999109268,0.1801558136940002,1.2236560583114624,-2.3521296977996826,0.4721856713294983, ,2.6916666666666664,-0.2209818363191829
324,2981285432,13.040616989135742,-87.9926986694336,-156.7289581298828,9.801958084106444,-0.0725790560245513,0.2130333036184311,1.2418934106826782,-2.4028971195220947,0.7079133987426758, ,2.7,3.0446496605871936
325,2981293765,12.975773811340332,-87.99581909179688,-156.65957641601562,9.844106674194336,-0.0710805505514144,0.2308999747037887,1.1946096420288086,-2.338784694671631,0.5990017056465149, ,2.7083333333333335,1.3845902681350726
326,2981302098,12.96217155456543,-87.99601745605469,-156.6414031982422,9.799732208251951,-0.0740162432193756,0.2361098080873489,1.1266037225723269,-2.231998920440674,0.6020241975784302, ,2.716666666666667,-1.0830044746398944
327,2981310431,12.877825736999512,-87.9980697631836,-156.55264282226562,9.777725219726562,-0.1008040830492973,0.2128499001264572,1.1813926696777344,-2.2329721450805664,0.6565057039260864, ,2.725,-2.676221430301677
328,2981318764,12.839982986450195,-87.99787902832031,-156.5092315673828,9.80460262298584,-0.0896318107843399,0.1915061175823211,1.243583917617798,-2.1773126125335693,0.6989485025405884, ,2.7333333333333334,2.6526573300361704
329,2981327097,12.75547218322754,-87.9985580444336,-156.42031860351562,9.848444938659668,-0.1022044345736503,0.2570608556270599,1.160158395767212,-2.055619239807129,0.6172903180122375, ,2.7416666666666667,2.1671444177627652
330,2981335430,12.747312545776367,-87.99797058105469,-156.4075469970703,9.796277046203612,-0.0803510919213295,0.2276251912117004,1.1359785795211792,-2.1301052570343018,0.5561234951019287, ,2.75,-1.2367147207260167
331,2981343763,12.678356170654297,-88.00061798095703,-156.3343505859375,9.817728996276855,-0.068009577691555,0.2364489436149597,1.1437908411026,-2.2745440006256104,0.5997701287269592, ,2.7583333333333333,-1.468107998371126
332,2981352096,12.687959671020508,-87.9997329711914,-156.3393096923828,9.790271759033203,-0.1143806129693985,0.2031567245721817,1.1378227472305298,-2.1517751216888428,0.4839938282966614, ,2.7666666666666666,1.0870796442031931
333,2981360429,12.650656700134276,-88.00188446044922,-156.29869079589844,9.85723876953125,-0.0861499533057212,0.2545669376850128,1.0453040599822998,-2.225313425064087,0.4489790797233581, ,2.775,2.2094777226448095
334,2981368762,12.654353141784668,-88.00159454345703,-156.29823303222656,9.754262924194336,-0.0717375501990318,0.2399813532829284,1.0666663646697998,-2.192629814147949,0.5173947811126709, ,2.783333333333333,-2.964987158775342
335,2981377095,12.590410232543944,-88.00315856933594,-156.23092651367188,9.808398246765137,-0.0780264511704444,0.2051504850387573,1.0748629570007324,-2.222265243530273,0.5638845562934875, ,2.7916666666666665,0.5457088351249748
336,2981385428,12.586017608642578,-88.00394439697266,-156.22219848632812,9.833147048950195,-0.0758610516786575,0.2490765005350113,1.0802931785583496,-2.285046100616455,0.5731569528579712, ,2.8,0.5936104059219378
337,2981393761,12.51390266418457,-88.005126953125,-156.14566040039062,9.810279846191406,-0.0891363769769668,0.2150439918041229,1.1864899396896362,-2.1250596046447754,0.5790994763374329, ,2.808333333333333,-1.7495584487915092
338,2981402094,12.527796745300291,-88.00473022460938,-156.15428161621094,9.81917953491211,-0.0691340267658233,0.2199171930551529,1.20367693901062,-2.1899914741516118,0.478640466928482, ,2.8166666666666664,0.5393645167350698
339,2981410427,12.453676223754885,-88.00727844238281,-156.0764617919922,9.797933578491213,-0.1008690223097801,0.2240334004163742,1.0838278532028198,-2.249262809753418,0.6120649576187134, ,2.825,0.4014417529105945
340,2981418760,12.421793937683104,-88.00767517089844,-156.0399169921875,9.8193359375,-0.0777609422802925,0.2266078889369964,1.1320083141326904,-2.248417615890503,0.6831700801849365, ,2.8333333333333335,1.3356167078018206
341,2981427093,12.35704231262207,-88.0101318359375,-155.97195434570312,9.79376983642578,-0.0702731013298034,0.2462936788797378,1.022405028343201,-2.259354829788208,0.574207067489624, ,2.841666666666667,-1.7843735218048131
342,2981435426,12.347695350646973,-88.00983428955078,-155.95823669433594,9.808890342712402,-0.080017015337944,0.1968683302402496,1.099836826324463,-2.2011590003967285,0.5759744644165039, ,2.85,-1.6107389330863988
343,2981443759,12.252684593200684,-88.01160430908203,-155.85916137695312,9.79630184173584,-0.0989142432808876,0.2194480299949646,1.1495285034179688,-2.237557172775269,0.7021758556365967, ,2.8583333333333334,1.9490012526512235
344,2981452092,12.20666790008545,-88.01160430908203,-155.80897521972656,9.827068328857422,-0.0945713445544242,0.2293516844511032,1.0618510246276855,-2.143681049346924,0.7171857953071594, ,2.8666666666666667,2.0044541358947825
345,2981460425,12.156253814697266,-88.013671875,-155.7550048828125,9.802811622619627,-0.0813283547759056,0.2528555989265442,1.067742109298706,-2.251312017440796,0.5122718811035156, ,2.875,-0.20416617393494008
346,2981468758,12.168503761291504,-88.01318359375,-155.7626953125,9.80616283416748,-0.0990176871418953,0.2259489148855209,1.1168959140777588,-2.16611909866333,0.4771292209625244, ,2.8833333333333333,-1.4809468388557487
347,2981477091,12.126900672912598,-88.01583862304688,-155.71690368652344,9.832576751708984,-0.0983666628599166,0.2281731516122818,1.1415879726409912,-2.288094043731689,0.484659731388092, ,2.8916666666666666,-0.6624045968055743
348,2981485424,12.1384859085083,-88.01436614990234,-155.72463989257812,9.818530082702637,-0.0978551134467125,0.2149088382720947,1.0458165407180786,-2.079876184463501,0.4591735601425171, ,2.9,0.43462246656417847
349,2981493757,12.091859817504885,-88.01594543457031,-155.673583984375,9.820341110229492,-0.0729259252548217,0.2354168593883514,1.161823272705078,-2.202465772628784,0.4900387525558471, ,2.908333333333333,1.1051774024963432
350,2981502090,12.123517990112305,-88.01554870605469,-155.70050048828125,9.78052806854248,-0.0733196139335632,0.2333284616470337,1.147760987281799,-2.175006866455078,0.3974432349205017, ,2.9166666666666665,-0.9797447919845617
351,2981510423,12.042110443115234,-88.01673126220703,-155.61502075195312,9.846330642700195,-0.0625660121440887,0.2190877795219421,1.13620924949646,-2.134050130844116,0.6219520568847656, ,2.925,-1.2486281991005015
352,2981518756,12.040746688842772,-88.01673126220703,-155.60877990722656,9.770359992980955,-0.0854977220296859,0.2125179916620254,1.1762185096740725,-2.242039680480957,0.5531265735626221, ,2.933333333333333,3.002899289131175
353,2981527089,11.949639320373535,-88.01909637451172,-155.51283264160156,9.791351318359377,-0.0839603170752525,0.2691361010074615,1.2029597759246826,-2.2343552112579346,0.6863461136817932, ,2.9416666666666664,2.5618037581445456
354,2981535422,11.92888641357422,-88.0186996459961,-155.48745727539062,9.822482109069824,-0.1000191867351532,0.2552147209644317,1.1376689672470093,-2.1575381755828857,0.6165986061096191, ,2.95,-3.8876026868820457
355,2981543755,11.844090461730955,-88.02088165283203,-155.39772033691406,9.835798263549805,-0.0861585736274719,0.2043427228927612,1.236463189125061,-2.237813234329224,0.6612699031829834, ,2.9583333333333335,-2.4845346808433604
356,2981552088,11.816864013671877,-88.02117156982422,-155.36557006835938,9.811723709106444,-0.0806299075484275,0.2138058096170425,1.185977578163147,-2.2782070636749268,0.6709265112876892, ,2.966666666666667,1.7185020446777397
357,2981560421,11.72757053375244,-88.02375030517578,-155.27243041992188,9.80034637451172,-0.0936345905065536,0.2329844236373901,1.095328688621521,-2.238812208175659,0.6734879016876221, ,2.975,-0.19901365041732788
358,2981568754,11.741415023803713,-88.02335357666016,-155.281005859375,9.799214363098145,-0.1020650863647461,0.2104889154434204,1.2092609405517578,-2.205103874206543,0.4834558963775635, ,2.9833333333333334,-1.8114039301872307
359,2981577087,11.687973022460938,-88.02523803710938,-155.22360229492188,9.831634521484377,-0.1073899492621421,0.2027943581342697,1.1165372133255005,-2.210841655731201,0.5179582238197327, ,2.9916666666666667,0.741175711154936
360,2981585420,11.708654403686523,-88.02454376220703,-155.23959350585938,9.805991172790527,-0.0954836383461952,0.2228418439626693,1.135901689529419,-2.15226149559021,0.4399884939193725, ,3.0,1.1400040984153783
361,2981593753,11.644646644592283,-88.02603149414062,-155.17100524902344,9.827584266662598,-0.0917410030961036,0.2217944264411926,1.1976321935653689,-2.196779489517212,0.5628344416618347, ,3.0083333333333333,-0.5588588118553144
362,2981602086,11.632525444030762,-88.02543640136719,-155.15382385253906,9.796937942504885,-0.0833592191338539,0.2135275304317474,1.1784982681274414,-2.156949520111084,0.5818914175033569, ,3.0166666666666666,0.18225073814392267
363,2981610419,11.557561874389648,-88.02682495117188,-155.07510375976562,9.828170776367188,-0.0928077474236488,0.2248319387435913,1.0832901000976562,-2.1198086738586426,0.5903953313827515, ,3.025,-0.7717591524124181
364,2981618752,11.55520248413086,-88.02603149414062,-155.06781005859375,9.766173362731934,-0.097048707306385,0.2006648778915405,1.1643078327178955,-2.1462936401367188,0.5360163450241089, ,3.033333333333333,-0.08284449577332076
365,2981627085,11.50683879852295,-88.02840423583984,-155.0151824951172,9.840972900390623,-0.0912565141916275,0.2234511971473693,1.1634113788604736,-2.304743528366089,0.5193414688110352, ,3.0416666666666665,0.8879819512367249
366,2981635418,11.506271362304688,-88.02742004394531,-155.00955200195312,9.796504974365234,-0.0663637220859527,0.2154645770788192,1.1737594604492188,-2.0944244861602783,0.5198280811309814, ,3.05,0.7175356149673515
367,2981643751,11.402042388916016,-88.02880096435547,-154.9016876220703,9.803421974182127,-0.0954615995287895,0.2354101240634918,1.0767072439193726,-2.112534284591675,0.7130874991416931, ,3.058333333333333,1.4452081918716537
368,2981652084,11.377503395080566,-88.02920532226562,-154.8727569580078,9.803265571594238,-0.0884077399969101,0.23955138027668,1.0968400239944458,-2.2213692665100098,0.6426227688789368, ,3.0666666666666664,-0.5937811732291447
369,2981660417,11.333250045776367,-88.0302963256836,-154.82489013671875,9.824252128601074,-0.1008508130908012,0.2255137711763382,1.097480297088623,-2.222982406616211,0.4830972552299499, ,3.075,-2.276276350021341
370,2981668750,11.32557773590088,-88.02960205078125,-154.8133544921875,9.784801483154297,-0.100575141608715,0.2016134411096573,1.0369539260864258,-2.1521849632263184,0.5571480393409729, ,3.0833333333333335,-0.8080941438674962
371,2981677083,11.26711368560791,-88.03099060058594,-154.75115966796875,9.837812423706056,-0.0833177044987678,0.2120455354452133,1.0841608047485352,-2.1231894493103027,0.5220308899879456, ,3.091666666666667,2.160463035106666
372,2981685416,11.234814643859863,-88.03128814697266,-154.7146759033203,9.784762382507324,-0.0747231543064117,0.2376211583614349,1.072839379310608,-2.224493741989136,0.6768177151679993, ,3.1,2.2770318388938975
373,2981693749,11.181406021118164,-88.03268432617188,-154.6575927734375,9.844426155090332,-0.0933893471956253,0.2499960660934448,1.093023419380188,-2.2300267219543457,0.5216211080551147, ,3.1083333333333334,-1.9721058011055081
374,2981702082,11.165345191955566,-88.03199005126953,-154.63746643066406,9.799829483032228,-0.0927485451102256,0.2047527283430099,1.046431064605713,-2.1039018630981445,0.581993818283081, ,3.1166666666666667,-0.7414251565933281
375,2981710415,11.108809471130373,-88.0329818725586,-154.57806396484375,9.825721740722656,-0.0908135622739791,0.2376389801502227,0.9836507439613342,-2.113789319992065,0.511016845703125, ,3.125,1.2130013108253515
376,2981718748,11.101917266845703,-88.03248596191406,-154.56678771972656,9.802921295166016,-0.1006260067224502,0.2249694168567657,1.102372646331787,-2.173316717147827,0.5592484474182129, ,3.1333333333333333,-1.149008274078371
377,2981727081,11.05677604675293,-88.03388214111328,-154.51776123046875,9.828794479370115,-0.0858978256583213,0.2184888422489166,1.1111327409744265,-2.20464301109314,0.4851976931095123, ,3.1416666666666666,0.8537489175796544
378,2981735414,11.072150230407717,-88.0331802368164,-154.52850341796875,9.770700454711914,-0.0953103750944137,0.2391985654830932,1.127500057220459,-2.1520822048187256,0.4627339541912079, ,3.15,-0.6178325414657593
379,2981743747,11.016345977783203,-88.03397369384766,-154.46800231933594,9.827024459838867,-0.0954015627503395,0.2081916332244873,1.1951731443405151,-2.054722785949707,0.5031532645225525, ,3.158333333333333,-1.0327318310737663
380,2981752080,11.028066635131836,-88.03337860107422,-154.47491455078125,9.822612762451172,-0.1000842005014419,0.2219863682985305,1.1462242603302002,-2.1668875217437744,0.4831997752189636, ,3.1666666666666665,2.6849663257598966
381,2981760413,10.989583015441896,-88.03466796875,-154.4325408935547,9.80111598968506,-0.1020907461643219,0.2529410719871521,1.097352147102356,-2.1790287494659424,0.45256507396698, ,3.175,1.5459787845611643
382,2981768746,11.02931022644043,-88.03497314453125,-154.4683837890625,9.803184509277344,-0.087708793580532,0.2477526813745498,1.0492743253707886,-2.293498516082764,0.386890172958374, ,3.183333333333333,-0.4420432448387164
383,2981777079,10.972322463989258,-88.03546905517578,-154.4082794189453,9.802861213684082,-0.1006973162293434,0.2455736845731735,1.0206888914108276,-2.09488582611084,0.5114266276359558, ,3.1916666666666664,-1.0576871037482523
384,2981785412,10.961180686950684,-88.03536987304688,-154.39306640625,9.833559036254885,-0.0715180113911628,0.2301245629787445,1.0531678199768066,-2.2170658111572266,0.5844528079032898, ,3.2,-1.5232676267623368
385,2981793745,10.922118186950684,-88.03666687011719,-154.3504638671875,9.787273406982422,-0.0958023369312286,0.2201858907938003,1.0681777000427246,-2.1702942848205566,0.4523090124130249, ,3.2083333333333335,-0.29868900775910134
386,2981802078,10.919471740722656,-88.0369644165039,-154.3436737060547,9.835968017578123,-0.0777501836419105,0.2251464128494262,1.069868087768555,-2.256767749786377,0.5569686889648438, ,3.216666666666667,2.029108107090005
387,2981810411,10.873472213745115,-88.03885650634766,-154.29335021972656,9.804984092712402,-0.0785884037613868,0.2540043592453003,1.1468133926391602,-2.2474186420440674,0.5002588629722595, ,3.225,-0.8081352710723895
388,2981818744,10.883480072021484,-88.03985595703125,-154.29833984375,9.80178928375244,-0.0659498125314712,0.2116774916648864,1.1753475666046145,-2.363271951675415,0.5297408103942871, ,3.2333333333333334,-2.189749181270612
389,2981827077,10.82361888885498,-88.04185485839844,-154.23471069335938,9.818347930908203,-0.0981219261884689,0.2175085395574569,1.087132215499878,-2.229693651199341,0.5508213639259338, ,3.2416666666666667,1.4082804322242826
390,2981835410,10.832091331481934,-88.04216003417969,-154.23826599121094,9.821683883666992,-0.087804839015007,0.2351488322019577,1.1697381734848022,-2.273647785186768,0.5180351734161377, ,3.25,-1.0994213819503766
391,2981843743,10.776670455932615,-88.04535675048828,-154.17941284179688,9.819360733032228,-0.0876709297299385,0.199184849858284,1.0542434453964231,-2.381150722503662,0.5603242516517639, ,3.2583333333333333,0.6317621469497663
392,2981852076,10.77580738067627,-88.04515838623047,-154.1750030517578,9.800750732421877,-0.0802380442619323,0.2456782013177871,1.0055253505706787,-2.2072811126708984,0.5372714400291443, ,3.2666666666666666,1.4414200186729431
393,2981860409,10.716863632202148,-88.04655456542969,-154.11155700683594,9.843993186950684,-0.08225879073143,0.2232085168361663,1.1825706958770752,-2.1887106895446777,0.5461595058441162, ,3.275,-0.9261810779571569
394,2981868742,10.726872444152832,-88.0455551147461,-154.1171112060547,9.810175895690918,-0.081755056977272,0.2302418500185012,1.1079565286636353,-2.12390685081482,0.4797418117523193, ,3.283333333333333,-0.689653158187868
395,2981877075,10.674778938293455,-88.04796600341797,-154.0607147216797,9.799893379211426,-0.076745294034481,0.2117142975330352,1.141664981842041,-2.251286506652832,0.5260011553764343, ,3.2916666666666665,0.16779631376266835
396,2981885408,10.667466163635254,-88.04796600341797,-154.04844665527344,9.850139617919922,-0.0911867395043373,0.233038455247879,1.170250415802002,-2.220651626586914,0.5724653005599976, ,3.3,2.420661449432382
397,2981893741,10.594436645507812,-88.05067443847656,-153.9710693359375,9.779932975769045,-0.1068807765841484,0.2520586550235748,1.1599279642105105,-2.353205442428589,0.6332992315292358, ,3.308333333333333,0.36826997995376587
398,2981902074,10.63245677947998,-88.05157470703125,-154.00440979003906,9.829633712768556,-0.0908613204956054,0.2391762882471084,1.126911163330078,-2.336402416229248,0.4042567014694214, ,3.3166666666666664,-0.2118363976478559
399,2981910407,10.566363334655762,-88.05348205566406,-153.93453979492188,9.816235542297363,-0.0966658890247345,0.2485280483961105,1.0994271039962769,-2.246573209762573,0.5828903913497925, ,3.3249999999999997,-0.11237472295754003
400,2981918740,10.57608699798584,-88.05298614501953,-153.94007873535156,9.775108337402344,-0.0960248187184333,0.2373033761978149,1.0859283208847046,-2.2151448726654053,0.4987476170063019, ,3.3333333333333335,-1.5425446629523982
401,2981927073,10.520638465881348,-88.05479431152344,-153.880859375,9.837890625,-0.1096021234989166,0.2228189706802368,1.0891300439834597,-2.212608814239502,0.5313289165496826, ,3.341666666666667,-2.0094314217567497
402,2981935406,10.528192520141602,-88.05479431152344,-153.88421630859375,9.816546440124512,-0.095377393066883,0.2038128525018692,1.05900776386261,-2.2205493450164795,0.5071746706962585, ,3.35,-0.7929655909538305
403,2981943739,10.460783004760742,-88.05670166015625,-153.8134002685547,9.8135404586792,-0.0973417237401008,0.209602877497673,1.0588539838790894,-2.2376081943511963,0.5842735171318054, ,3.3583333333333334,2.5261420011520475
404,2981952072,10.464366912841797,-88.05630493164062,-153.81288146972656,9.83205223083496,-0.0917036086320877,0.2459152191877365,1.0689716339111328,-2.18865966796875,0.5174460411071777, ,3.3666666666666667,0.670061409473421
405,2981960405,10.419394493103027,-88.05781555175781,-153.76405334472656,9.812348365783691,-0.0886673778295517,0.2207705676555633,1.1178691387176514,-2.205333948135376,0.4896032214164734, ,3.375,-0.1482555270195025
406,2981968738,10.428129196166992,-88.05801391601562,-153.7689208984375,9.801923751831056,-0.0938626229763031,0.2434442937374115,1.0344949960708618,-2.2413482666015625,0.5052792429924011, ,3.3833333333333333,1.0070970654487663
407,2981977071,10.390007019042969,-88.06022644042969,-153.72702026367188,9.80630874633789,-0.0786308050155639,0.237555518746376,1.0770658254623413,-2.2851481437683105,0.472134381532669, ,3.3916666666666666,0.49501419067382635
408,2981985404,10.412191390991213,-88.06043243408203,-153.744873046875,9.822311401367188,-0.0797543749213218,0.2516945302486419,1.096737504005432,-2.2488784790039062,0.4534872770309448, ,3.4,-0.24223744869232355
409,2981993737,10.371101379394531,-88.06245422363281,-153.7008819580078,9.794004440307615,-0.0830526202917099,0.2335182279348373,0.9932047128677368,-2.272700071334839,0.4801260828971863, ,3.408333333333333,-1.1292645335197484
410,2982002070,10.406161308288574,-88.06195068359375,-153.73126220703125,9.814067840576172,-0.0818904265761375,0.2328734546899795,1.1396926641464231,-2.2092278003692627,0.3949587047100067, ,3.4166666666666665,-1.837626099586494
411,2982010403,10.375219345092772,-88.06326293945312,-153.69618225097656,9.793521881103516,-0.0762048959732055,0.2028911262750625,1.1139501333236694,-2.168808460235596,0.4246712028980255, ,3.425,1.9870707392692637
412,2982018736,10.395770072937012,-88.0623550415039,-153.71177673339844,9.817540168762209,-0.0920967012643814,0.2659913003444671,1.1756550073623655,-2.145371437072754,0.4437025785446167, ,3.433333333333333,1.4156824350357091
413,2982027069,10.339178085327148,-88.06488037109375,-153.6514129638672,9.838111877441406,-0.0841713026165962,0.2264858335256576,1.1060611009597778,-2.3803820610046387,0.5698015093803406, ,3.4416666666666664,-0.8222955465316772
414,2982035402,10.344196319580078,-88.06427001953125,-153.65199279785156,9.794029235839844,-0.0961190164089202,0.2522863745689392,1.115154266357422,-2.2051808834075928,0.5163445472717285, ,3.4499999999999997,-0.3999942541120465
415,2982043735,10.27712345123291,-88.06751251220703,-153.5802001953125,9.811595916748049,-0.083716332912445,0.2198192626237869,1.1913564205169678,-2.341012954711914,0.6075568199157715, ,3.4583333333333335,-1.7651394009588621
416,2982052068,10.244725227355955,-88.068115234375,-153.54237365722656,9.82127857208252,-0.0867379531264305,0.2228673845529556,1.2245526313781738,-2.3025918006896973,0.6923144459724426, ,3.466666666666667,-0.7880330085754412
417,2982060401,10.179415702819824,-88.0706558227539,-153.47381591796875,9.813733100891112,-0.1049360185861587,0.2066853791475296,1.0226099491119385,-2.249954462051392,0.5775370001792908, ,3.475,0.8446857333183324
418,2982068734,10.176506042480469,-88.07096099853516,-153.4676055908203,9.79514217376709,-0.0746940746903419,0.2369454801082611,0.9688966870307922,-2.2773358821868896,0.5575066208839417, ,3.4833333333333334,0.7890030741691589
419,2982077067,10.143197059631348,-88.07288360595703,-153.43080139160156,9.811962127685549,-0.0897828713059425,0.2198354303836822,1.0495048761367798,-2.2837910652160645,0.4534359872341156, ,3.4916666666666667,0.9649014472961426
420,2982085400,10.143610000610352,-88.07257843017578,-153.42709350585938,9.802989959716797,-0.0811650082468986,0.2530271708965301,1.0767072439193726,-2.202901124954224,0.5350685715675354, ,3.5,0.4301851987838763
421,2982093733,10.108230590820312,-88.07481384277344,-153.388427734375,9.81027603149414,-0.1030498966574668,0.2270051836967468,1.0219184160232544,-2.2968029975891118,0.4636048674583435, ,3.5083333333333333,-3.6640414595604067
422,2982102066,10.135480880737305,-88.07553100585938,-153.41127014160156,9.829970359802246,-0.0797501429915428,0.1919598132371902,1.1078540086746216,-2.282484531402588,0.4387077987194061, ,3.5166666666666666,-0.4532334208488482
423,2982110399,10.08095932006836,-88.07796478271484,-153.35316467285156,9.80346393585205,-0.0808348208665847,0.219451293349266,1.0648478269577026,-2.3331494331359863,0.5519739985466003, ,3.525,1.5724503993988073
424,2982118732,10.096939086914062,-88.0788803100586,-153.36529541015625,9.803078651428224,-0.0791589170694351,0.2181673198938369,1.0438697338104248,-2.3421401977539062,0.4940089583396911, ,3.533333333333333,1.6534021496772837
425,2982127065,10.063061714172363,-88.08051300048828,-153.3278350830078,9.815193176269531,-0.0824831873178482,0.2470079958438873,1.0772451162338257,-2.3040518760681152,0.4610690474510193, ,3.5416666666666665,-0.7987305521965027
426,2982135398,10.061760902404783,-88.08061981201172,-153.3224334716797,9.806918144226074,-0.0867290422320365,0.2048551440238952,1.0620044469833374,-2.2239303588867188,0.5450324416160583, ,3.55,-1.3275048136711192
427,2982143731,10.003912925720217,-88.08377838134766,-153.26048278808594,9.79227066040039,-0.0510017983615398,0.2248829156160354,1.128217339515686,-2.379459857940674,0.5733106732368469, ,3.558333333333333,4.72597539424898
428,2982152064,9.99049949645996,-88.08439636230469,-153.24273681640625,9.834158897399902,-0.0701341927051544,0.2836214005947113,1.0942528247833252,-2.3180880546569824,0.6114245653152466, ,3.5666666666666664,-0.16805648803710582
429,2982160397,9.913578987121582,-88.08746337890625,-153.1623992919922,9.802176475524902,-0.099035657942295,0.2220819741487503,1.040027737617493,-2.354562759399414,0.6455684304237366, ,3.5749999999999997,-4.766459763050113
430,2982168730,9.917512893676758,-88.08797454833984,-153.16168212890625,9.81969165802002,-0.0953912585973739,0.2041804045438766,1.1334682703018188,-2.299492359161377,0.537783682346344, ,3.5833333333333335,0.26252835989010137
431,2982177063,9.821187019348145,-88.09033203125,-153.06076049804688,9.822404861450195,-0.0655325576663017,0.2264574468135833,1.1560344696044922,-2.24257755279541,0.7062484622001648, ,3.591666666666667,1.7928984761238187
432,2982185396,9.793709754943848,-88.08961486816406,-153.02857971191406,9.78447437286377,-0.089906595647335,0.2340620458126068,1.1509627103805542,-2.1403768062591557,0.6398051381111145, ,3.6,2.4047559499740743
433,2982193729,9.699559211730955,-88.09074401855469,-152.9306640625,9.84890365600586,-0.1032857745885849,0.2665367126464844,1.0903339385986328,-2.178029537200928,0.685552179813385, ,3.6083333333333334,-0.5511832237243706
434,2982202062,9.70522689819336,-88.09074401855469,-152.93238830566406,9.81869411468506,-0.0784470587968826,0.224875658750534,1.0632596015930176,-2.244959831237793,0.5195463299751282, ,3.6166666666666667,-3.0288103222847127
435,2982210395,9.65310001373291,-88.09268951416016,-152.87567138671875,9.79691219329834,-0.0784287601709365,0.216056540608406,1.160158395767212,-2.223315715789795,0.5249253511428833, ,3.625,-0.638047456741333
436,2982218728,9.633393287658691,-88.0929946899414,-152.8517608642578,9.832669258117676,-0.0849040672183036,0.2142415344715118,1.0665384531021118,-2.221624851226806,0.6188527941703796, ,3.6333333333333333,1.0329008102417063
437,2982227061,9.551158905029297,-88.093505859375,-152.76560974121094,9.81024169921875,-0.090654119849205,0.2332715541124344,1.1012457609176636,-2.0571048259735107,0.615855872631073, ,3.6416666666666666,-0.5524501204490662
438,2982235394,9.55397891998291,-88.0934066772461,-152.7639923095703,9.810077667236328,-0.1105192452669143,0.2050340324640274,1.1249388456344604,-2.2672698497772217,0.5367335081100464, ,3.65,0.5347466468811017
439,2982243727,9.49051570892334,-88.09566497802734,-152.69644165039062,9.801815032958984,-0.0756858065724372,0.2421839982271194,1.0934333801269531,-2.220754384994507,0.5694684982299805, ,3.658333333333333,1.9223114848136955
440,2982252060,9.461934089660645,-88.09525299072266,-152.6630096435547,9.82608127593994,-0.0843260884284973,0.2370725572109222,1.156213641166687,-2.1671690940856934,0.6481553912162781, ,3.6666666666666665,-0.01807987689971924
441,2982260393,9.42424201965332,-88.09648895263672,-152.62228393554688,9.817618370056152,-0.0766680091619491,0.2418826669454574,1.0100589990615845,-2.241194486618042,0.4648343026638031, ,3.675,-0.14344453811645685
442,2982268726,9.422307968139648,-88.09587097167969,-152.61611938476562,9.845026969909668,-0.0800673067569732,0.2346818149089813,1.0912816524505615,-2.161508321762085,0.5366823077201843, ,3.683333333333333,-0.8911523222923297
443,2982277059,9.358280181884766,-88.09761810302734,-152.5477752685547,9.771470069885254,-0.0792660191655159,0.2270301282405853,1.1383862495422363,-2.2148373126983643,0.5715687870979309, ,3.6916666666666664,-0.25026977062225164
444,2982285392,9.344773292541504,-88.09771728515625,-152.52960205078125,9.80591106414795,-0.093336708843708,0.2305106520652771,1.131137490272522,-2.211122989654541,0.5941606163978577, ,3.6999999999999997,0.01977771520616578
445,2982293725,9.286495208740234,-88.09947204589844,-152.46676635742188,9.825472831726074,-0.0890867486596107,0.2273597568273544,1.193047046661377,-2.2588939666748047,0.5588129758834839, ,3.7083333333333335,0.8940106630325761
446,2982302058,9.269256591796877,-88.09906005859375,-152.4459991455078,9.80179500579834,-0.0955957472324371,0.2454108297824859,1.0021440982818604,-2.177645444869995,0.5981308221817017, ,3.716666666666667,1.3321915268898046
447,2982310391,9.2330322265625,-88.10039520263672,-152.40603637695312,9.793362617492676,-0.1026051640510559,0.2495629489421844,1.0698169469833374,-2.207229852676392,0.4562279284000397, ,3.725,-2.452940046787269
448,2982318724,9.224804878234863,-88.10081481933594,-152.3934783935547,9.824103355407717,-0.0747115090489387,0.2045284956693649,1.089949607849121,-2.2236995697021484,0.5731056332588196, ,3.7333333333333334,-1.0242220759391785
449,2982327057,9.183721542358398,-88.10132598876953,-152.34849548339844,9.781420707702637,-0.1166454628109932,0.2324925810098648,1.1116962432861328,-2.1607658863067627,0.469803512096405, ,3.7416666666666667,-0.12033462524414418
450,2982335390,9.216572761535645,-88.10173797607422,-152.37811279296875,9.824495315551758,-0.0810340866446495,0.2025229185819625,0.9613919258117676,-2.2939341068267822,0.4150402545928955, ,3.75,1.1279198527336156
451,2982343723,9.17720890045166,-88.10246276855469,-152.33566284179688,9.85954475402832,-0.0704403817653656,0.2512912452220917,1.0153865814208984,-2.134920835494995,0.4562535583972931, ,3.7583333333333333,2.516768574714673
452,2982352056,9.202749252319336,-88.10163116455078,-152.3563690185547,9.790772438049316,-0.0774218887090683,0.2444690614938736,1.1614645719528198,-2.1907341480255127,0.4341996908187866, ,3.7666666666666666,-1.9068503379821866
453,2982360389,9.148977279663086,-88.10298156738281,-152.29891967773438,9.812799453735352,-0.1003981828689575,0.219510406255722,1.059391975402832,-2.1596388816833496,0.5206220746040344, ,3.775,-2.1324840188026517
454,2982368722,9.149418830871582,-88.10235595703125,-152.2952117919922,9.803601264953612,-0.0866184160113334,0.2089276611804962,1.066794514656067,-2.15410590171814,0.5262060761451721, ,3.783333333333333,0.5858954787254369
455,2982377055,9.11478328704834,-88.1048355102539,-152.25682067871094,9.815648078918455,-0.083901897072792,0.2292753309011459,1.0855441093444824,-2.326361894607544,0.4719806909561157, ,3.7916666666666665,1.3696798682212865
456,2982385388,9.111299514770508,-88.10494232177734,-152.24867248535156,9.820416450500488,-0.0746630728244781,0.2317556589841842,1.1333916187286377,-2.2459588050842285,0.5600681304931641, ,3.8,-0.3847154974937492
457,2982393721,9.06832790374756,-88.10638427734375,-152.20199584960938,9.819831848144531,-0.0917040929198265,0.2228634059429168,1.0716099739074707,-2.188429117202759,0.4809713065624237, ,3.808333333333333,0.4990196228027344
458,2982402054,9.06218433380127,-88.10607147216797,-152.1910858154297,9.785099029541016,-0.0640722662210464,0.2400726526975631,1.1446105241775513,-2.1862006187438965,0.5602729320526123, ,3.8166666666666664,2.118762731552133
459,2982410387,9.017598152160645,-88.10782623291016,-152.1425018310547,9.81883430480957,-0.0808615013957023,0.2581761181354522,1.12309467792511,-2.2881710529327397,0.5074564218521118, ,3.8249999999999997,-0.15395253896700467
460,2982418720,9.021932601928713,-88.10814666748047,-152.14320373535156,9.772768020629885,-0.0890989080071449,0.2375067770481109,1.014106035232544,-2.2788727283477783,0.5289467573165894, ,3.8333333333333335,-3.941634893417346
461,2982427053,8.971295356750488,-88.10958862304688,-152.08831787109375,9.81567096710205,-0.0845805257558822,0.1924822032451629,1.127269625663757,-2.199673652648926,0.5181632041931152, ,3.841666666666667,-0.6528550386428851
462,2982435386,8.965943336486816,-88.1088638305664,-152.07872009277344,9.792314529418944,-0.0846437439322471,0.2266258597373962,1.1011687517166138,-2.169269323348999,0.5533571839332581, ,3.85,-0.1316910982131958
463,2982443719,8.89371109008789,-88.11125183105469,-152.00270080566406,9.828994750976562,-0.0913044363260269,0.1902873516082763,1.0720198154449463,-2.2816648483276367,0.6160095930099487, ,3.8583333333333334,0.8974090218544042
464,2982452052,8.893884658813477,-88.1113510131836,-151.9989776611328,9.844910621643066,-0.0809440910816192,0.2415826767683029,1.039925217628479,-2.245625734329224,0.5407805442810059, ,3.8666666666666667,1.773727834224708
465,2982460385,8.814483642578125,-88.11197662353516,-151.91531372070312,9.822598457336426,-0.0742280334234237,0.219849482178688,1.148042917251587,-2.111330270767212,0.621491014957428, ,3.875,-1.8943753838539212
466,2982468718,8.7794771194458,-88.11145782470703,-151.875244140625,9.782424926757812,-0.0833462998270988,0.210009753704071,1.1836978197097778,-2.139813184738159,0.6699274182319641, ,3.8833333333333333,0.1364752650260943
467,2982477051,8.70473575592041,-88.11373901367188,-151.79612731933594,9.796439170837402,-0.0945126265287399,0.2221240699291229,1.1520898342132568,-2.257638692855835,0.624590277671814, ,3.8916666666666666,2.5751316547393888
468,2982485384,8.679200172424316,-88.11394500732422,-151.76535034179688,9.841590881347656,-0.0882239118218422,0.252928614616394,1.2079031467437744,-2.2591240406036377,0.6519462466239929, ,3.9,-1.4076590538024956
469,2982493717,8.604369163513184,-88.11477661132812,-151.6864776611328,9.792139053344728,-0.0715840011835098,0.1986630856990814,1.120328068733215,-2.137507677078247,0.6049184799194336, ,3.908333333333333,-1.0475715994834935
470,2982502050,8.598477363586426,-88.11487579345703,-151.675537109375,9.808156967163086,-0.0961401239037513,0.2354690879583358,1.159236192703247,-2.2188587188720703,0.5649347305297852, ,3.9166666666666665,2.3832696676254326
471,2982510383,8.526073455810547,-88.11653900146484,-151.59837341308594,9.800203323364258,-0.0908144116401672,0.2383842468261718,1.2215300798416138,-2.2615320682525635,0.6180074214935303, ,3.925,0.18866300582886097
472,2982518716,8.545141220092773,-88.1164321899414,-151.61329650878906,9.815298080444336,-0.0836067870259285,0.2386134713888168,1.082624077796936,-2.240963935852051,0.4664992690086365, ,3.933333333333333,-0.8448636531829834
473,2982527049,8.50432300567627,-88.11820220947266,-151.56857299804688,9.84661102294922,-0.1015017703175544,0.2243031859397888,1.0954055786132812,-2.287914991378784,0.4912938475608825, ,3.9416666666666664,-2.021368145942695
474,2982535382,8.495781898498535,-88.118408203125,-151.55560302734375,9.778220176696776,-0.1074673384428024,0.204924002289772,1.1028337478637695,-2.227951765060425,0.5748987197875977, ,3.9499999999999997,0.686089396476568
475,2982543715,8.440168380737305,-88.11975860595703,-151.4961395263672,9.823095321655272,-0.0928966104984283,0.2357380092144012,1.0756826400756836,-2.168706178665161,0.531943678855896, ,3.9583333333333335,1.9521072506903216
476,2982552048,8.43565559387207,-88.11975860595703,-151.487060546875,9.845547676086426,-0.0672848001122474,0.237459123134613,1.120353937149048,-2.2405285835266118,0.5611438751220703, ,3.966666666666667,0.13088732957839966
477,2982560381,8.366301536560059,-88.12122344970703,-151.41360473632812,9.792563438415527,-0.0983743891119957,0.2379194647073745,1.1217881441116333,-2.2110719680786133,0.5966707468032837, ,3.975,-1.4599370956420987
478,2982568714,8.357763290405273,-88.12205505371094,-151.4005584716797,9.807577133178713,-0.0686143785715103,0.2131268382072448,1.112771987915039,-2.312196969985962,0.5864506959915161, ,3.9833333333333334,-1.7925667762756383
479,2982577047,8.315436363220215,-88.12413787841797,-151.35482788085938,9.792933464050291,-0.0913126096129417,0.2080433517694473,1.0566768646240234,-2.326566696166992,0.5051255226135254, ,3.9916666666666667,2.166277170181287
480,2982585380,8.306412696838379,-88.12445068359375,-151.3413848876953,9.79966926574707,-0.0711739361286163,0.2492314577102661,1.106163501739502,-2.2659120559692383,0.5820194482803345, ,4.0,2.937132418155654
481,2982593713,8.23696517944336,-88.12633514404297,-151.26866149902344,9.83083724975586,-0.0773530602455139,0.2569955587387085,1.0101613998413086,-2.236071348190308,0.5958511233329773, ,4.008333333333333,-2.896551489829619
482,2982602046,8.218127250671387,-88.12716674804688,-151.24447631835938,9.827613830566406,-0.0954645276069641,0.2009555995464325,1.2175599336624146,-2.3056654930114746,0.6303279399871826, ,4.016666666666667,-1.7285290360449874
483,2982610379,8.14923095703125,-88.12895202636719,-151.17144775390625,9.802206039428713,-0.069261759519577,0.2281867414712906,1.124605655670166,-2.2479052543640137,0.5980027318000793, ,4.025,3.7869036197662993
484,2982618712,8.13317584991455,-88.12895202636719,-151.15179443359375,9.797712326049805,-0.103716030716896,0.2640706598758697,1.0043469667434692,-2.22423791885376,0.6006410121917725, ,4.033333333333333,-0.17055362462950008
485,2982627045,8.07530403137207,-88.13019561767578,-151.0901641845703,9.83274269104004,-0.0868313461542129,0.225344181060791,1.0845962762832642,-2.209970474243164,0.5490026473999023, ,4.041666666666667,-2.258103489875543
486,2982635378,8.058979034423828,-88.13103485107422,-151.06939697265625,9.80423069000244,-0.0708644986152648,0.2264356017112732,1.0985816717147827,-2.3001837730407715,0.6147031784057617, ,4.05,0.7308831810950629
487,2982643711,8.013066291809082,-88.13282012939453,-151.01885986328125,9.814087867736816,-0.0861970409750938,0.2375255674123764,1.202140212059021,-2.275901556015014,0.5161140561103821, ,4.058333333333334,-1.099361479282642
488,2982652044,8.00883960723877,-88.13156127929688,-151.00938415527344,9.821430206298828,-0.094428464770317,0.2081129103899002,1.1929446458816528,-2.098600149154663,0.5422917604446411, ,4.066666666666666,-0.38056790828738585
489,2982660377,7.944724082946777,-88.13260650634766,-150.94091796875,9.837420463562012,-0.0809431299567222,0.2311827689409256,1.1754499673843384,-2.1956264972686768,0.5748986601829529, ,4.075,0.5842423439023516
490,2982668710,7.908992767333984,-88.13240051269531,-150.9005584716797,9.808069229125977,-0.0837339013814926,0.2178502827882766,1.1101082563400269,-2.155873537063598,0.6710289716720581, ,4.083333333333333,-1.993683278560603
491,2982677043,7.834053039550781,-88.13407897949219,-150.82106018066406,9.809460639953612,-0.0924969613552093,0.1979547142982483,1.172504425048828,-2.209740161895752,0.6204664707183838, ,4.091666666666667,1.0716935992244654
492,2982685376,7.809087753295898,-88.13250732421875,-150.79177856445312,9.826199531555176,-0.0957312062382698,0.2357118427753448,1.0991966724395752,-2.068913221359253,0.6177000999450684, ,4.1,1.4414164423945905
493,2982693709,7.72196626663208,-88.13449096679688,-150.69952392578125,9.799513816833496,-0.1057318896055221,0.2219783216714859,1.2393063306808472,-2.239119529724121,0.6742563843727112, ,4.108333333333333,-1.084246337413731
494,2982702042,7.69849157333374,-88.13565826416016,-150.6707305908203,9.810635566711426,-0.0954777896404266,0.217641070485115,1.2077239751815796,-2.365576982498169,0.6551224589347839, ,4.116666666666666,0.08001118898385151
495,2982710375,7.649860858917236,-88.13817596435547,-150.61724853515625,9.84408473968506,-0.0761595666408538,0.2233118414878845,1.2048295736312866,-2.3466739654541016,0.5345051288604736, ,4.125,0.7886132597923403
496,2982718708,7.640048980712891,-88.13806915283203,-150.6029815673828,9.778072357177734,-0.1094388291239738,0.2307846248149871,1.109160542488098,-2.203541755676269,0.5766148567199707, ,4.133333333333333,0.737967789173144
497,2982727041,7.556983947753906,-88.1390151977539,-150.51531982421875,9.8267822265625,-0.0894443243741989,0.2356113046407699,1.1678683757781982,-2.166836261749268,0.6451585292816162, ,4.141666666666667,-2.4329558014868446
498,2982735374,7.548516750335693,-88.13912200927734,-150.5023651123047,9.812536239624023,-0.1058747395873069,0.190235361456871,1.134774684906006,-2.2497239112854004,0.5779468417167664, ,4.15,-0.39649933576530394
499,2982743707,7.500342845916748,-88.14069366455078,-150.4498291015625,9.812294006347656,-0.0834438502788543,0.2290029823780059,1.1352869272232056,-2.247854232788086,0.519110918045044, ,4.158333333333333,2.619245946407542
500,2982752040,7.514280319213867,-88.1413345336914,-150.458984375,9.821918487548828,-0.0879240408539772,0.2338894605636596,1.130138635635376,-2.278156042098999,0.4933942556381225, ,4.166666666666667,0.7856538891792546
501,2982760373,7.474982261657715,-88.14237976074219,-150.41552734375,9.81279468536377,-0.0899596586823463,0.2420972138643264,1.1322388648986816,-2.2031829357147217,0.4781280755996704, ,4.175,-0.6288743019102281
502,2982768706,7.481752395629883,-88.14227294921875,-150.41787719726562,9.78722858428955,-0.0734738409519195,0.2234082221984863,1.09694242477417,-2.209125518798828,0.5113241076469421, ,4.183333333333334,-2.3565360903740125
503,2982777039,7.422474384307861,-88.1451187133789,-150.3539581298828,9.806808471679688,-0.0632684230804443,0.2028216123580932,1.190588116645813,-2.3802030086517334,0.5822243690490723, ,4.191666666666666,1.002536416053406
504,2982785372,7.4086833000183105,-88.14385986328125,-150.3349151611328,9.848688125610352,-0.0858486369252204,0.2401171624660492,1.1892050504684448,-2.074625253677368,0.5761283040046692, ,4.2,0.2616110444064432
505,2982793705,7.358731269836426,-88.14544677734375,-150.2806854248047,9.777912139892578,-0.0965446829795837,0.2071817964315414,1.1513214111328125,-2.250927686691284,0.5292028784751892, ,4.208333333333333,-0.9714782238009789
506,2982802038,7.332300186157227,-88.14533233642578,-150.24887084960938,9.8084135055542,-0.0799120664596557,0.2239258587360382,1.2094402313232422,-2.1779017448425293,0.6406760811805725, ,4.216666666666667,1.5209180116652963
507,2982810371,7.215421199798584,-88.14701843261719,-150.12741088867188,9.821043968200684,-0.0968621373176574,0.2325304299592971,1.177729606628418,-2.246317148208618,0.7899813652038574, ,4.225,0.3658774495125545
508,2982818704,7.178709983825684,-88.14596557617188,-150.0858612060547,9.798314094543455,-0.098083309829235,0.2300238162279129,1.1458399295806885,-2.063482522964477,0.663985013961792, ,4.233333333333333,-0.6492295861244539
509,2982827037,7.090539932250977,-88.14713287353516,-149.99267578125,9.83085823059082,-0.0975288748741149,0.2217099368572235,1.2366424798965454,-2.216348648071289,0.676382303237915, ,4.241666666666666,0.6189161539076018
510,2982835370,7.0673041343688965,-88.14765930175781,-149.96426391601562,9.80355739593506,-0.0973645895719528,0.2403390854597091,1.191586971282959,-2.274108648300171,0.640112578868866, ,4.25,-1.2510672211650817
511,2982843703,7.013895034790039,-88.14850616455078,-149.90628051757812,9.816929817199709,-0.0742750689387321,0.2008588165044784,1.1748607158660889,-2.1641721725463867,0.5309702754020691, ,4.258333333333333,-1.6160658001903094
512,2982852036,7.001550197601318,-88.14807891845703,-149.88922119140625,9.828975677490234,-0.0902922824025154,0.2134046554565429,1.1402305364608765,-2.180565357208252,0.5844016075134277, ,4.266666666666667,2.693897187709677
513,2982860369,6.975329875946045,-88.14871215820312,-149.857666015625,9.847207069396973,-0.0857251957058906,0.2457571029663086,1.2736036777496338,-2.143706798553467,0.4253884255886078, ,4.275,1.5567693114278303
514,2982868702,7.003290176391602,-88.1482925415039,-149.87979125976562,9.821413040161133,-0.0889530256390571,0.2393508106470108,1.2633837461471558,-2.2067174911499023,0.4332520067691803, ,4.283333333333333,-0.7029095292091458
515,2982877035,6.9741058349609375,-88.14935302734375,-149.845703125,9.773759841918944,-0.0980267748236656,0.2340419441461563,1.2137945890426636,-2.207101821899414,0.4448552131652832, ,4.291666666666667,-0.5744326114654505
516,2982885368,7.0012640953063965,-88.14892578125,-149.86734008789062,9.813058853149414,-0.0929037109017372,0.2297769337892532,1.2266017198562622,-2.1593055725097656,0.4288975894451141, ,4.3,0.1408186554908042
517,2982893701,6.944571495056152,-88.1498794555664,-149.806396484375,9.821413040161133,-0.0892039313912391,0.2363889217376709,1.157392144203186,-2.207460641860962,0.5502065420150757, ,4.308333333333334,-1.9429877400401274
518,2982902034,6.928537845611572,-88.14913940429688,-149.78550720214844,9.78494358062744,-0.0894763842225074,0.1973938047885894,1.136183500289917,-2.1063356399536133,0.5892171263694763, ,4.316666666666666,0.27269214391655616
519,2982910367,6.905139923095703,-88.15008544921875,-149.75775146484375,9.835034370422363,-0.087779089808464,0.2409337908029556,1.1541390419006348,-2.1992640495300293,0.4215207099914551, ,4.325,2.399539053439801
520,2982918700,6.905215740203857,-88.15093231201172,-149.75218200683594,9.799602508544922,-0.0865599662065506,0.2373861223459243,1.2458122968673706,-2.335839033126831,0.5578396320343018, ,4.333333333333333,-1.4414557814597035
521,2982927033,6.842978477478027,-88.1530532836914,-149.68551635742188,9.792969703674316,-0.0866100937128067,0.2169095277786255,1.1610292196273804,-2.322417020797729,0.587577760219574, ,4.341666666666667,0.0399881601336336
522,2982935366,6.833573818206787,-88.15167999267578,-149.67164611816406,9.815848350524902,-0.1015400364995002,0.2380525916814804,1.116230010986328,-2.048729181289673,0.5558930039405823, ,4.35,0.8204385638238847
523,2982943699,6.794612884521484,-88.15262603759766,-149.62899780273438,9.805296897888184,-0.1042409539222717,0.2305835038423538,1.048890233039856,-2.145320415496826,0.4707768857479095, ,4.358333333333333,-4.0378153324130714
524,2982952032,6.816606521606445,-88.15326690673828,-149.64674377441406,9.804129600524902,-0.103523313999176,0.1707556694746017,1.086389422416687,-2.314604997634888,0.4640915691852569, ,4.366666666666666,-0.4288280010230583
525,2982960365,6.780139923095703,-88.15475463867188,-149.6067657470703,9.82787799835205,-0.0972020104527473,0.2234363704919815,1.0329325199127195,-2.2304365634918213,0.471622109413147, ,4.375,6.77864402532585
526,2982968698,6.832536697387695,-88.15411376953125,-149.65512084960938,9.780108451843262,-0.0830741226673126,0.283733069896698,1.0605446100234983,-2.152697324752808,0.3252879679203033, ,4.383333333333333,0.7056516408927269
527,2982977031,6.823792934417725,-88.1546401977539,-149.64356994628906,9.8248291015625,-0.0804832652211189,0.2351972311735153,0.973814845085144,-2.2026963233947754,0.3596110641956329, ,4.391666666666667,-4.8009556531903765
528,2982985364,6.849172115325928,-88.15475463867188,-149.6646270751953,9.8352632522583,-0.0917982384562492,0.2037171423435211,1.0936894416809082,-2.251593828201294,0.4441636800765991, ,4.4,-0.636787712573673
529,2982993697,6.8163275718688965,-88.15729522705078,-149.62867736816406,9.800811767578123,-0.0857939720153808,0.2245841026306152,0.9782716631889344,-2.368368864059448,0.4745933413505554, ,4.408333333333333,2.918583154678309
530,2983002030,6.836995124816895,-88.15729522705078,-149.64511108398438,9.822583198547363,-0.0743856057524681,0.2523601949214935,1.094329595565796,-2.268934488296509,0.4647062122821808, ,4.416666666666667,-0.938249230385285
531,2983010363,6.811437606811523,-88.159423828125,-149.615478515625,9.81459140777588,-0.0954487100243568,0.2089466154575348,1.104908466339111,-2.293447494506836,0.4401678740978241, ,4.425,-0.6811729073529342
532,2983018696,6.832738876342773,-88.15953063964844,-149.63308715820312,9.798147201538086,-0.086371511220932,0.241007313132286,1.0234040021896362,-2.267705202102661,0.4599676728248596, ,4.433333333333334,0.045822858810014466
533,2983027029,6.787510871887207,-88.16059112548828,-149.58428955078125,9.798528671264648,-0.0941676124930381,0.2097103297710418,1.0515028238296509,-2.177338123321533,0.5010528564453125, ,4.441666666666666,1.1786314845079975
534,2983035362,6.794074535369873,-88.16239929199219,-149.5869903564453,9.840027809143066,-0.0862399637699127,0.260651171207428,1.0293208360671997,-2.4191362857818604,0.5349916815757751, ,4.45,3.67962241172766
535,2983043695,6.747363090515137,-88.16314697265625,-149.53598022460938,9.769538879394531,-0.1062968373298645,0.2710373699665069,1.1361067295074463,-2.1735727787017822,0.511221706867218, ,4.458333333333333,-6.308713853358441
536,2983052028,6.75374174118042,-88.16474914550781,-149.5380096435547,9.788297653198242,-0.0815470665693283,0.1555059403181076,1.1052926778793335,-2.4188547134399414,0.5380654335021973, ,4.466666666666667,-4.967755973338152
537,2983060361,6.71638298034668,-88.16688537597656,-149.49661254882812,9.806227684020996,-0.1039734780788421,0.1882414370775222,1.1274232864379885,-2.4049463272094727,0.5028458833694458, ,4.475,5.310835540294514
538,2983068694,6.736882209777832,-88.16698455810547,-149.51315307617188,9.814455032348633,-0.09169452637434,0.244019865989685,1.0551143884658811,-2.2543089389801025,0.4629132449626922, ,4.483333333333333,2.185705304145344
539,2983077027,6.703747272491455,-88.1693344116211,-149.4761962890625,9.770176887512209,-0.0799863263964653,0.2246698588132858,1.0845963954925537,-2.351873874664306,0.476514458656311, ,4.491666666666666,0.7394725084301577
540,2983085360,6.717696189880371,-88.17051696777344,-149.486083984375,9.83040714263916,-0.078541874885559,0.2563444077968597,1.071686863899231,-2.40256404876709,0.5059195756912231, ,4.5,2.351847589015817
541,2983093693,6.6795654296875,-88.17426300048828,-149.44357299804688,9.813024520874023,-0.0742417573928833,0.2638673186302185,1.1180741786956787,-2.484196424484253,0.5125280618667603, ,4.508333333333333,-3.0328202247615526
542,2983102026,6.686021327972412,-88.17533111572266,-149.44638061523438,9.79055881500244,-0.0664448365569114,0.205797404050827,1.0206120014190674,-2.359531879425049,0.5284857153892517, ,4.516666666666667,-2.9808390140531973
