PacketCounter,SampleTimeFine,Euler_X,Euler_Y,Euler_Z,Acc_X,Acc_Y,Acc_Z,Gyr_X,Gyr_Y,Gyr_Z,
0, 2908067646, 19.45383644104004, -77.1796875, 40.814090728759766, 0, 0, 0, 0, 0, 0, 
1, 2908075979, 19.464921951293945, -77.17963409423828, 40.80177688598633, 9.59992790222168, 0.7159669995307922, 2.089404821395874, 2.429727792739868, -0.1704627126455307, -0.8977020382881165, 
2, 2908084312, 19.470481872558594, -77.17926788330078, 40.799652099609375, 9.556222915649414, 0.7083882093429565, 2.0945961475372314, 2.4753215312957764, -0.11003876477479935, -0.7550053000450134, 
3, 2908092645, 19.47768783569336, -77.17876434326172, 40.791229248046875, 9.57441234588623, 0.7039303779602051, 2.0673587322235107, 2.4175100326538086, -0.08281082659959793, -0.8166331052780151, 
4, 2908100978, 19.482707977294922, -77.17745208740234, 40.76835632324219, 9.58121395111084, 0.7287256121635437, 2.0970497131347656, 2.47452712059021, -0.0054046036675572395, -0.7692979574203491, 
5, 2908109311, 19.488981246948242, -77.17736053466797, 40.76111602783203, 9.584518432617188, 0.7110283374786377, 2.0892388820648193, 2.443098783493042, -0.11739005148410797, -0.7737036347389221, 
6, 2908117644, 19.4935245513916, -77.17616271972656, 40.75205993652344, 9.620099067687988, 0.704313337802887, 2.073385238647461, 2.4455833435058594, -0.014984328299760818, -0.7607428431510925, 
7, 2908125977, 19.497764587402344, -77.1760482788086, 40.74752426147461, 9.585785865783691, 0.6965664029121399, 2.063150405883789, 2.516432046890259, -0.09362003207206726, -0.7054673433303833, 
8, 2908134310, 19.502342224121094, -77.17549896240234, 40.73537826538086, 9.583734512329102, 0.7343653440475464, 2.0798721313476562, 2.4175100326538086, -0.08757507801055908, -0.7417883276939392, 
9, 2908142643, 19.50576400756836, -77.17598724365234, 40.730491638183594, 9.609491348266602, 0.7115366458892822, 2.0913031101226807, 2.3779871463775635, -0.16364935040473938, -0.691046416759491, 
10, 2908150976, 19.509021759033203, -77.17449951171875, 40.71726608276367, 9.595257759094238, 0.7040819525718689, 2.0811097621917725, 2.4230940341949463, 0.03274780139327049, -0.7480381727218628, 
11, 2908159309, 19.516590118408203, -77.17386627197266, 40.70964813232422, 9.581528663635254, 0.7194185256958008, 2.0943384170532227, 2.5593361854553223, -0.05658184736967087, -0.8044919371604919, 
12, 2908167642, 19.52394676208496, -77.17324829101562, 40.690711975097656, 9.567943572998047, 0.6967012286186218, 2.0638835430145264, 2.436131238937378, -0.10816891491413116, -0.8119968771934509, 
13, 2908175975, 19.534330368041992, -77.17306518554688, 40.679744720458984, 9.600934028625488, 0.7193073630332947, 2.0734951496124268, 2.4985790252685547, -0.14372147619724274, -0.8697569370269775, 
14, 2908184308, 19.539886474609375, -77.17194366455078, 40.67120361328125, 9.579224586486816, 0.7167345285415649, 2.0768187046051025, 2.5806467533111572, -0.02225877158343792, -0.7541086673736572, 
15, 2908192641, 19.546632766723633, -77.17185974121094, 40.664615631103516, 9.572537422180176, 0.7385444641113281, 2.042813301086426, 2.5840282440185547, -0.11049981415271759, -0.7580789923667908, 
16, 2908200974, 19.549203872680664, -77.1716537475586, 40.6611328125, 9.632425308227539, 0.717155396938324, 2.045431613922119, 2.5852320194244385, -0.09561794251203537, -0.6431734561920166, 
17, 2908209307, 19.54979133605957, -77.1716537475586, 40.661460876464844, 9.611051559448242, 0.744016170501709, 2.0972697734832764, 2.642300605773926, -0.0637282207608223, -0.5775241851806641, 
18, 2908217640, 19.547983169555664, -77.17048645019531, 40.66375732421875, 9.600679397583008, 0.708534836769104, 2.0806987285614014, 2.611358404159546, 0.06486805528402328, -0.5696350336074829, 
19, 2908225973, 19.542936325073242, -77.16999053955078, 40.66908645629883, 9.56625747680664, 0.7419799566268921, 2.077357053756714, 2.5571587085723877, 0.03838293254375458, -0.4710201919078827, 
20, 2908234306, 19.542251586914062, -77.16972351074219, 40.66797637939453, 9.605051040649414, 0.7033732533454895, 2.080383062362671, 2.5911998748779297, -0.06562366336584091, -0.5604138374328613, 
21, 2908242639, 19.544754028320312, -77.16891479492188, 40.665374755859375, 9.574100494384766, 0.7114949226379395, 2.0854947566986084, 2.537128448486328, 0.008158133365213871, -0.6837720274925232, 
22, 2908250972, 19.54775619506836, -77.16834259033203, 40.666080474853516, 9.553580284118652, 0.7361803650856018, 2.0747594833374023, 2.571810245513916, -0.06162784993648529, -0.6737055778503418, 
23, 2908259305, 19.55217742919922, -77.16759490966797, 40.66197204589844, 9.579381942749023, 0.7150710821151733, 2.066006660461426, 2.5881261825561523, -0.015701526775956154, -0.7196062803268433, 
24, 2908267638, 19.562524795532227, -77.16682434082031, 40.667938232421875, 9.592477798461914, 0.7098732590675354, 2.0717062950134277, 2.6939644813537598, -0.09287721663713455, -0.8496497869491577, 
25, 2908275971, 19.5711669921875, -77.16560363769531, 40.6589469909668, 9.560318946838379, 0.7322795987129211, 2.044191360473633, 2.5202999114990234, -0.010604294016957283, -0.8595625758171082, 
26, 2908284304, 19.580032348632812, -77.16368865966797, 40.65242004394531, 9.54578685760498, 0.6974555253982544, 2.077918529510498, 2.5468616485595703, 0.04486333206295967, -0.8887370824813843, 
27, 2908292637, 19.58660316467285, -77.16266632080078, 40.64555358886719, 9.55967903137207, 0.716307520866394, 2.1045305728912354, 2.520402431488037, -0.015932055190205574, -0.7986774444580078, 
28, 2908300970, 19.58765411376953, -77.1620864868164, 40.642356872558594, 9.595301628112793, 0.7433623671531677, 2.078345537185669, 2.559105396270752, -0.03949715197086334, -0.625602126121521, 
29, 2908309303, 19.587238311767578, -77.16119384765625, 40.64194107055664, 9.590943336486816, 0.7063165307044983, 2.083186626434326, 2.444533109664917, 0.02969970740377903, -0.6326972246170044, 
30, 2908317636, 19.58984375, -77.16104125976562, 40.64295959472656, 9.570552825927734, 0.7088322639465332, 2.0566723346710205, 2.5499355792999268, -0.10115061700344086, -0.65388023853302, 
31, 2908325969, 19.593490600585938, -77.16248321533203, 40.638790130615234, 9.615472793579102, 0.7346753478050232, 2.0844032764434814, 2.485772132873535, -0.26807859539985657, -0.6313396692276001, 
32, 2908334302, 19.600297927856445, -77.1615982055664, 40.62859344482422, 9.59819507598877, 0.716380774974823, 2.056840181350708, 2.5454533100128174, -0.06024468317627907, -0.7892258763313293, 
33, 2908342635, 19.605405807495117, -77.16199493408203, 40.624237060546875, 9.56515121459961, 0.6982246041297913, 2.0343332290649414, 2.646808385848999, -0.14789658784866333, -0.6805701851844788, 
34, 2908350968, 19.614971160888672, -77.16232299804688, 40.614315032958984, 9.55870246887207, 0.7143779993057251, 2.0792760848999023, 2.5728092193603516, -0.21930909156799316, -0.8071045875549316, 
35, 2908359301, 19.62275505065918, -77.16312408447266, 40.60659408569336, 9.58612060546875, 0.7463552355766296, 2.1040430068969727, 2.570888042449951, -0.22440631687641144, -0.747986912727356, 
36, 2908367634, 19.63295555114746, -77.1639633178711, 40.59641647338867, 9.567572593688965, 0.6920990347862244, 2.076138973236084, 2.7358179092407227, -0.2678736746311188, -0.7673000693321228, 
37, 2908375967, 19.64815330505371, -77.16549682617188, 40.581485748291016, 9.576753616333008, 0.7104926109313965, 2.0200302600860596, 2.6201443672180176, -0.3699463903903961, -0.900955080986023, 
38, 2908384300, 19.663908004760742, -77.16586303710938, 40.56824493408203, 9.587677001953125, 0.7325409650802612, 2.0355944633483887, 2.594632625579834, -0.27663376927375793, -0.9638124704360962, 
39, 2908392633, 19.678638458251953, -77.16690063476562, 40.55354690551758, 9.574938774108887, 0.7273848056793213, 2.1074366569519043, 2.586256504058838, -0.31451719999313354, -0.9130194783210754, 
40, 2908400966, 19.691869735717773, -77.16812896728516, 40.54070281982422, 9.550633430480957, 0.7118892073631287, 2.074158191680908, 2.578136920928955, -0.36026424169540405, -0.8595113158226013, 
41, 2908409299, 19.70901870727539, -77.16960906982422, 40.52350616455078, 9.576081275939941, 0.7127974629402161, 2.0749716758728027, 2.589919328689575, -0.3823693096637726, -0.9592530131340027, 
42, 2908417632, 19.723079681396484, -77.17109680175781, 40.5015869140625, 9.591972351074219, 0.7262002825737, 2.0470988750457764, 2.643094539642334, -0.3911037743091583, -0.854977548122406, 
43, 2908425965, 19.737939834594727, -77.17137145996094, 40.4880485534668, 9.595951080322266, 0.7130634188652039, 2.0592122077941895, 2.7394299507141113, -0.21951401233673096, -0.916041910648346, 
44, 2908434298, 19.7584171295166, -77.17121887207031, 40.467472076416016, 9.563451766967773, 0.7328932881355286, 2.0541231632232666, 2.6178388595581055, -0.26144447922706604, -1.0952646732330322, 
45, 2908442631, 19.773576736450195, -77.1722640991211, 40.451904296875, 9.573114395141602, 0.7213155031204224, 2.0409178733825684, 2.534234046936035, -0.32694011926651, -0.9326399564743042, 
46, 2908450964, 19.789199829101562, -77.17224884033203, 40.43832015991211, 9.593395233154297, 0.7414652705192566, 2.065406322479248, 2.5901753902435303, -0.2322186380624771, -0.9750826358795166, 
47, 2908459297, 19.80072593688965, -77.17211151123047, 40.4272575378418, 9.541703224182129, 0.7198778986930847, 2.065563917160034, 2.6297495365142822, -0.15086784958839417, -0.8686812520027161, 
48, 2908467630, 19.813335418701172, -77.17257690429688, 40.41685104370117, 9.572794914245605, 0.7199614644050598, 2.069814920425415, 2.6132028102874756, -0.2571156919002533, -0.8703205585479736, 
49, 2908475963, 19.82373046875, -77.17306518554688, 40.406742095947266, 9.589485168457031, 0.7381529211997986, 2.067915201187134, 2.6069529056549072, -0.21029287576675415, -0.8211155533790588, 
50, 2908484296, 19.83057403564453, -77.17303466796875, 40.408958435058594, 9.579846382141113, 0.7371737360954285, 2.052379846572876, 2.5720152854919434, -0.15545281767845154, -0.751803457736969, 
51, 2908492629, 19.835628509521484, -77.17269897460938, 40.40336990356445, 9.568178176879883, 0.7347493767738342, 2.055715799331665, 2.4946601390838623, -0.07497286051511765, -0.7413015961647034, 
52, 2908500962, 19.843597412109375, -77.17192840576172, 40.3955192565918, 9.59030818939209, 0.7476139068603516, 2.0430099964141846, 2.612715721130371, -0.0812995657324791, -0.8010082840919495, 
53, 2908509295, 19.848783493041992, -77.17263793945312, 40.39044952392578, 9.588223457336426, 0.7185611724853516, 2.0764834880828857, 2.5633316040039062, -0.19643555581569672, -0.6828498840332031, 
54, 2908517628, 19.848684310913086, -77.1722640991211, 40.387107849121094, 9.590497970581055, 0.7056624889373779, 2.093048572540283, 2.466177225112915, -0.05722220614552498, -0.61174476146698, 
55, 2908525961, 19.850988388061523, -77.17312622070312, 40.3847770690918, 9.574642181396484, 0.7143138647079468, 2.0611279010772705, 2.5427379608154297, -0.18447370827198029, -0.6090296506881714, 
56, 2908534294, 19.857412338256836, -77.17278289794922, 40.377689361572266, 9.582438468933105, 0.7271804809570312, 2.031061887741089, 2.584745407104492, -0.1115499883890152, -0.7487809658050537, 
57, 2908542627, 19.85528564453125, -77.17354583740234, 40.37922668457031, 9.57659912109375, 0.7190686464309692, 2.041409730911255, 2.4646143913269043, -0.13560174405574799, -0.5189443826675415, 
58, 2908550960, 19.853269577026367, -77.173583984375, 40.38043212890625, 9.53539752960205, 0.7232714295387268, 2.019854784011841, 2.5072877407073975, -0.07602304965257645, -0.5362852811813354, 
59, 2908559293, 19.855907440185547, -77.17354583740234, 40.37783432006836, 9.565350532531738, 0.7263376712799072, 2.0729422569274902, 2.548295736312866, -0.08688347786664963, -0.6525225639343262, 
60, 2908567626, 19.85344696044922, -77.17304992675781, 40.379638671875, 9.590317726135254, 0.7021254301071167, 2.0757477283477783, 2.4674320220947266, -0.02861110307276249, -0.5521661043167114, 
61, 2908575959, 19.8533935546875, -77.17237854003906, 40.37843322753906, 9.576953887939453, 0.7153190970420837, 2.0655853748321533, 2.3901283740997314, 0.002215631539002061, -0.6443004608154297, 
62, 2908584292, 19.85484504699707, -77.172607421875, 40.380897521972656, 9.587031364440918, 0.7136988043785095, 2.048642873764038, 2.5641257762908936, -0.13106805086135864, -0.6100798845291138, 
63, 2908592625, 19.851259231567383, -77.17292785644531, 40.383296966552734, 9.558623313903809, 0.7431569695472717, 2.0369317531585693, 2.3869779109954834, -0.08324626833200455, -0.5125665068626404, 
64, 2908600958, 19.845388412475586, -77.17230224609375, 40.38385772705078, 9.588129997253418, 0.72296541929245, 2.0671956539154053, 2.41471791267395, 0.019761383533477783, -0.4821367561817169, 
65, 2908609291, 19.84133529663086, -77.17263793945312, 40.38750457763672, 9.578064918518066, 0.7381842732429504, 2.0694773197174072, 2.4780619144439697, -0.07136125862598419, -0.4819830358028412, 
66, 2908617624, 19.83731460571289, -77.17118835449219, 40.39693069458008, 9.566197395324707, 0.7280630469322205, 2.1037497520446777, 2.5630881786346436, 0.10465976595878601, -0.5325327515602112, 
67, 2908625957, 19.83242416381836, -77.17091369628906, 40.40058898925781, 9.58150863647461, 0.718330979347229, 2.0412750244140625, 2.3784101009368896, 0.00007684271258767694, -0.5047925710678101, 
68, 2908634290, 19.8257999420166, -77.1701431274414, 40.40546798706055, 9.583573341369629, 0.7133017182350159, 2.070997714996338, 2.4463260173797607, 0.044607196003198624, -0.4629773199558258, 
69, 2908642623, 19.819183349609375, -77.16974639892578, 40.41118621826172, 9.561978340148926, 0.72163987159729, 2.048271656036377, 2.41715145111084, 0.035334840416908264, -0.4609537720680237, 
70, 2908650956, 19.815670013427734, -77.1681900024414, 40.41469955444336, 9.573299407958984, 0.7201233506202698, 2.0749943256378174, 2.3690223693847656, 0.09844831377267838, -0.5919449925422668, 
71, 2908659289, 19.811899185180664, -77.16709899902344, 40.416717529296875, 9.602873802185059, 0.7134549021720886, 2.0505459308624268, 2.3217127323150635, 0.07452461868524551, -0.5796757340431213, 
72, 2908667622, 19.806161880493164, -77.16571807861328, 40.4290771484375, 9.60269546508789, 0.7024276256561279, 2.0931262969970703, 2.422863245010376, 0.1062094196677208, -0.5178429484367371, 
73, 2908675955, 19.803407669067383, -77.16414642333984, 40.430198669433594, 9.58169937133789, 0.7119195461273193, 2.077953338623047, 2.339386463165283, 0.12365271896123886, -0.6228356957435608, 
74, 2908684288, 19.79712677001953, -77.16268157958984, 40.43644332885742, 9.569467544555664, 0.7192487120628357, 2.0519862174987793, 2.370558977127075, 0.1134326383471489, -0.5164341926574707, 
75, 2908692621, 19.793296813964844, -77.1615982055664, 40.438934326171875, 9.58107852935791, 0.7332990169525146, 2.070718288421631, 2.373504638671875, 0.08187589794397354, -0.5682774186134338, 
76, 2908700954, 19.792484283447266, -77.16027069091797, 40.43974685668945, 9.568354606628418, 0.7204247117042542, 2.042609214782715, 2.6037256717681885, 0.06573893874883652, -0.5989376902580261, 
77, 2908709287, 19.79908561706543, -77.15901184082031, 40.432315826416016, 9.5732421875, 0.7081990838050842, 2.076808452606201, 2.463820695877075, 0.01333221048116684, -0.8250345587730408, 
78, 2908717620, 19.804691314697266, -77.1575698852539, 40.41945266723633, 9.585701942443848, 0.717846691608429, 2.053241729736328, 2.390794515609741, -0.0008708839304745197, -0.8148144483566284, 
79, 2908725953, 19.810222625732422, -77.156494140625, 40.411983489990234, 9.587932586669922, 0.7178345322608948, 2.0971691608428955, 2.331932783126831, -0.005481446161866188, -0.819117546081543, 
80, 2908734286, 19.816394805908203, -77.1561508178711, 40.40563201904297, 9.584918975830078, 0.7177364230155945, 2.09017014503479, 2.3932785987854004, -0.13014592230319977, -0.7847177386283875, 
81, 2908742619, 19.823101043701172, -77.15601348876953, 40.39839553833008, 9.573360443115234, 0.728291928768158, 2.038600206375122, 2.4986815452575684, -0.11477739363908768, -0.7744719386100769, 
82, 2908750952, 19.8297119140625, -77.15437316894531, 40.39345169067383, 9.588696479797363, 0.7311878800392151, 2.0030276775360107, 2.4005022048950195, 0.010745171457529068, -0.8481385707855225, 
83, 2908759285, 19.830856323242188, -77.15283203125, 40.39207458496094, 9.552107810974121, 0.7181844115257263, 2.0593905448913574, 2.520120620727539, 0.10395537316799164, -0.6855906844139099, 
84, 2908767618, 19.832263946533203, -77.15194702148438, 40.39229202270508, 9.58568000793457, 0.7236731648445129, 2.073363780975342, 2.419687271118164, -0.015573455020785332, -0.6830548644065857, 
85, 2908775951, 19.83031463623047, -77.1508560180664, 40.39225769042969, 9.561534881591797, 0.7257024645805359, 2.057555675506592, 2.2986085414886475, 0.05636412277817726, -0.6313908696174622, 
86, 2908784284, 19.832515716552734, -77.15087127685547, 40.38772964477539, 9.57776927947998, 0.7700120210647583, 2.0753817558288574, 2.4352095127105713, -0.12156516313552856, -0.660309374332428, 
87, 2908792617, 19.83285903930664, -77.15118408203125, 40.38716125488281, 9.569475173950195, 0.7286168932914734, 2.063434362411499, 2.511744976043701, -0.10663206875324249, -0.5885895490646362, 
88, 2908800950, 19.835529327392578, -77.15100860595703, 40.382076263427734, 9.5808687210083, 0.7140725255012512, 2.0752146244049072, 2.5434038639068604, -0.10709312558174133, -0.6514468789100647, 
89, 2908809283, 19.8408145904541, -77.15030670166016, 40.376182556152344, 9.585868835449219, 0.7254565358161926, 2.1180286407470703, 2.476806879043579, -0.04359542950987816, -0.7634835243225098, 
90, 2908817616, 19.84488296508789, -77.14968872070312, 40.37348937988281, 9.577617645263672, 0.710091769695282, 2.0740747451782227, 2.4544973373413086, -0.05637693405151367, -0.7389963865280151, 
91, 2908825949, 19.85269546508789, -77.14952087402344, 40.365272521972656, 9.573702812194824, 0.7327817678451538, 2.0461955070495605, 2.513768434524536, -0.12007953971624374, -0.8006754517555237, 
92, 2908834282, 19.856807708740234, -77.14962768554688, 40.36212158203125, 9.594697952270508, 0.7223215103149414, 2.060626268386841, 2.518993616104126, -0.14764046669006348, -0.689176619052887, 
93, 2908842615, 19.867416381835938, -77.14994049072266, 40.351951599121094, 9.574419975280762, 0.7183880805969238, 2.0581860542297363, 2.6156234741210938, -0.19406627118587494, -0.8297348022460938, 
94, 2908850948, 19.872861862182617, -77.150146484375, 40.34260177612305, 9.571617126464844, 0.7355597019195557, 2.0921144485473633, 2.5378966331481934, -0.17153851687908173, -0.7126904726028442, 
95, 2908859281, 19.879894256591797, -77.15064239501953, 40.3361930847168, 9.567605972290039, 0.7241665124893188, 2.0695619583129883, 2.6326184272766113, -0.181041419506073, -0.7253695726394653, 
96, 2908867614, 19.87993621826172, -77.1506576538086, 40.32075881958008, 9.602048873901367, 0.739834189414978, 2.023081064224243, 2.624422073364258, -0.08777999132871628, -0.5635644197463989, 
97, 2908875947, 19.884010314941406, -77.15120697021484, 40.31718444824219, 9.577598571777344, 0.7264555096626282, 2.093183994293213, 2.6040842533111572, -0.16403356194496155, -0.6540595293045044, 
98, 2908884280, 19.885215759277344, -77.1511459350586, 40.31894302368164, 9.596353530883789, 0.7264735698699951, 2.0778450965881348, 2.5505504608154297, -0.0931333601474762, -0.6179690957069397, 
99, 2908892613, 19.887197494506836, -77.15042114257812, 40.31699752807617, 9.588251113891602, 0.7036702632904053, 2.0827598571777344, 2.5521128177642822, 0.0009605337982065976, -0.6649199724197388, 
100, 2908900946, 19.891677856445312, -77.1487808227539, 40.31315612792969, 9.589341163635254, 0.7378259301185608, 2.0653910636901855, 2.5107970237731934, 0.043403320014476776, -0.7704506516456604, 
101, 2908909279, 19.89605140686035, -77.14832305908203, 40.30837631225586, 9.572790145874023, 0.705888569355011, 2.0436501502990723, 2.5058021545410156, -0.055198680609464645, -0.7239351272583008, 
102, 2908917612, 19.898618698120117, -77.14836883544922, 40.30369186401367, 9.589410781860352, 0.7095685005187988, 2.0433719158172607, 2.4659464359283447, -0.130402073264122, -0.6633318662643433, 
103, 2908925945, 19.902645111083984, -77.14759063720703, 40.299373626708984, 9.601181030273438, 0.71807461977005, 2.0900888442993164, 2.519531488418579, -0.012781504541635513, -0.7280590534210205, 
104, 2908934278, 19.90728187561035, -77.14697265625, 40.28669357299805, 9.564458847045898, 0.7273829579353333, 2.083648443222046, 2.600625991821289, -0.06155100464820862, -0.7139199376106262, 
105, 2908942611, 19.914127349853516, -77.14714050292969, 40.280277252197266, 9.569611549377441, 0.7221755385398865, 2.091073513031006, 2.6091814041137695, -0.14415691792964935, -0.7409685254096985, 
106, 2908950944, 19.923904418945312, -77.14778900146484, 40.272159576416016, 9.572381019592285, 0.7342579960823059, 2.0238144397735596, 2.5558269023895264, -0.26062482595443726, -0.8009315133094788, 
107, 2908959277, 19.930376052856445, -77.14759063720703, 40.26557540893555, 9.583572387695312, 0.7529821991920471, 2.03641676902771, 2.541995048522949, -0.10440362244844437, -0.7612550258636475, 
108, 2908967610, 19.938295364379883, -77.14715576171875, 40.265220642089844, 9.600641250610352, 0.7271436452865601, 2.0739428997039795, 2.5947861671447754, -0.11651916056871414, -0.7936058640480042, 
109, 2908975943, 19.943897247314453, -77.1478500366211, 40.25974655151367, 9.555685043334961, 0.7208296060562134, 2.0771827697753906, 2.573859214782715, -0.18946850299835205, -0.6968609094619751, 
110, 2908984276, 19.948225021362305, -77.14749145507812, 40.259090423583984, 9.59451961517334, 0.7441133260726929, 2.0867645740509033, 2.618197441101074, -0.0893680676817894, -0.6912001371383667, 
111, 2908992609, 19.95323944091797, -77.1470947265625, 40.25361251831055, 9.585729598999023, 0.736263632774353, 2.0498242378234863, 2.498169183731079, -0.07097704708576202, -0.7397390604019165, 
112, 2909000942, 19.957048416137695, -77.14564514160156, 40.249027252197266, 9.58476448059082, 0.7460542917251587, 2.038431167602539, 2.4804954528808594, 0.03331131488084793, -0.7555942535400391, 
113, 2909009275, 19.957515716552734, -77.1454849243164, 40.24801254272461, 9.564359664916992, 0.7449631094932556, 2.069173812866211, 2.474553108215332, -0.058221153914928436, -0.6197620034217834, 
114, 2909017608, 19.961360931396484, -77.14543914794922, 40.23381423950195, 9.555620193481445, 0.7107535004615784, 2.076911687850952, 2.5076465606689453, -0.1267392486333847, -0.6874092221260071, 
115, 2909025941, 19.96511459350586, -77.14618682861328, 40.230133056640625, 9.587793350219727, 0.7325339317321777, 2.082301616668701, 2.5571587085723877, -0.18306496739387512, -0.6488085985183716, 
116, 2909034274, 19.970170974731445, -77.14710998535156, 40.22067642211914, 9.572799682617188, 0.732340395450592, 2.0652740001678467, 2.537717580795288, -0.24146538972854614, -0.6761902570724487, 
117, 2909042607, 19.974002838134766, -77.14765167236328, 40.21660614013672, 9.594715118408203, 0.7394632697105408, 2.058380603790283, 2.5200438499450684, -0.16605709493160248, -0.667506992816925, 
118, 2909050940, 19.979812622070312, -77.14703369140625, 40.212547302246094, 9.598834991455078, 0.735556960105896, 2.085520029067993, 2.4704291820526123, -0.08757507055997849, -0.770271360874176, 
119, 2909059273, 19.98398780822754, -77.14768981933594, 40.20812225341797, 9.59093189239502, 0.7438589334487915, 2.0517947673797607, 2.528291702270508, -0.17691752314567566, -0.670401394367218, 
120, 2909067606, 19.9901065826416, -77.1466064453125, 40.20669174194336, 9.573478698730469, 0.7463257312774658, 2.056332588195801, 2.624011993408203, -0.0183654073625803, -0.7686576247215271, 
121, 2909075939, 19.9906005859375, -77.14582061767578, 40.206825256347656, 9.585711479187012, 0.7156804203987122, 2.0529158115386963, 2.6153032779693604, 0.024474404752254486, -0.6147928833961487, 
122, 2909084272, 19.99496841430664, -77.14552307128906, 40.2027473449707, 9.576637268066406, 0.7280255556106567, 2.0760581493377686, 2.569223165512085, -0.09792321920394897, -0.7025472521781921, 
123, 2909092605, 19.99532699584961, -77.14537811279297, 40.20242691040039, 9.584253311157227, 0.7188091278076172, 2.0907468795776367, 2.5481934547424316, -0.046950891613960266, -0.6030615568161011, 
124, 2909100938, 20.001699447631836, -77.14483642578125, 40.19150924682617, 9.548200607299805, 0.7168673276901245, 2.048449754714966, 2.4637949466705322, -0.10166288912296295, -0.7850250005722046, 
125, 2909109271, 20.004425048828125, -77.14627838134766, 40.18854522705078, 9.592374801635742, 0.7402714490890503, 2.026740312576294, 2.514946460723877, -0.2540932297706604, -0.6030615568161011, 
126, 2909117604, 20.006675720214844, -77.14712524414062, 40.18441390991211, 9.584731101989746, 0.7172509431838989, 2.053750991821289, 2.4828004837036133, -0.21385324001312256, -0.6201974749565125, 
127, 2909125937, 20.0074462890625, -77.14775085449219, 40.18253707885742, 9.563922882080078, 0.7206800580024719, 2.0664374828338623, 2.4131298065185547, -0.15432576835155487, -0.6051106452941895, 
128, 2909134270, 20.011613845825195, -77.14786529541016, 40.177703857421875, 9.570549011230469, 0.7235988974571228, 2.0742359161376953, 2.487257480621338, -0.14628289639949799, -0.6995759606361389, 
129, 2909142603, 20.012460708618164, -77.1483383178711, 40.17664337158203, 9.5638427734375, 0.7139354944229126, 2.071662187576294, 2.5110530853271484, -0.13191331923007965, -0.5943527221679688, 
130, 2909150936, 20.0176944732666, -77.14759063720703, 40.16738510131836, 9.557840347290039, 0.7364418506622314, 2.0336337089538574, 2.5493977069854736, -0.05727342516183853, -0.7456560134887695, 
131, 2909159269, 20.023731231689453, -77.14815521240234, 40.16038513183594, 9.591144561767578, 0.7412351369857788, 2.057859420776367, 2.4426631927490234, -0.19249099493026733, -0.7397647500038147, 
132, 2909167602, 20.029773712158203, -77.1483383178711, 40.14971923828125, 9.59871768951416, 0.7461873292922974, 2.0747005939483643, 2.5536751747131348, -0.16705605387687683, -0.7271625995635986, 
133, 2909175935, 20.034116744995117, -77.14680480957031, 40.14453125, 9.566010475158691, 0.7545675039291382, 2.091827154159546, 2.451756000518799, 0.060155030339956284, -0.7810036540031433, 
134, 2909184268, 20.036989212036133, -77.14611053466797, 40.137962341308594, 9.5743989944458, 0.7305768132209778, 2.0503790378570557, 2.532594680786133, -0.04169997572898865, -0.6876909136772156, 
135, 2909192601, 20.04055404663086, -77.1460189819336, 40.134159088134766, 9.567401885986328, 0.7405468225479126, 2.025763750076294, 2.5203254222869873, -0.0916733518242836, -0.6849758625030518, 
136, 2909200934, 20.03987693786621, -77.14564514160156, 40.15949249267578, 9.606395721435547, 0.8115202188491821, 2.061718463897705, 2.5642027854919434, -0.0392410084605217, -0.5835179090499878, 
137, 2909209267, 20.041109085083008, -77.14582061767578, 40.15753936767578, 9.560272216796875, 0.6235401034355164, 2.0702500343322754, 2.4541637897491455, -0.10565871000289917, -0.6272413730621338, 
138, 2909217600, 20.054019927978516, -77.14604187011719, 40.14703369140625, 9.593517303466797, 0.740664541721344, 2.053823709487915, 2.4933278560638428, -0.2363937497138977, -0.9204218983650208, 
139, 2909225933, 20.06294822692871, -77.146484375, 40.13764953613281, 9.596636772155762, 0.7600266337394714, 2.0514602661132812, 2.5133841037750244, -0.20286475121974945, -0.8018792867660522, 
140, 2909234266, 20.066707611083984, -77.14692687988281, 40.13701248168945, 9.5497465133667, 0.7196219563484192, 2.059178113937378, 2.576446533203125, -0.17540627717971802, -0.6570563316345215, 
141, 2909242599, 20.074926376342773, -77.14755249023438, 40.12785339355469, 9.580480575561523, 0.7436732649803162, 2.049614191055298, 2.452883243560791, -0.21930906176567078, -0.7901991009712219, 
142, 2909250932, 20.077180862426758, -77.14761352539062, 40.12428665161133, 9.592765808105469, 0.7367318868637085, 2.0503926277160645, 2.5858981609344482, -0.12138587236404419, -0.6281891465187073, 
143, 2909259265, 20.08163833618164, -77.1481704711914, 40.11989212036133, 9.591538429260254, 0.7446737289428711, 2.0616238117218018, 2.5581064224243164, -0.16715849936008453, -0.6748327016830444, 
144, 2909267598, 20.084407806396484, -77.14842987060547, 40.109619140625, 9.574827194213867, 0.7345982789993286, 2.0631678104400635, 2.437822103500366, -0.14925414323806763, -0.6691206693649292, 
145, 2909275931, 20.08816909790039, -77.15006256103516, 40.10520935058594, 9.592787742614746, 0.7178354263305664, 2.0488033294677734, 2.4683542251586914, -0.29359036684036255, -0.6290600299835205, 
146, 2909284264, 20.087661743164062, -77.15038299560547, 40.102073669433594, 9.582038879394531, 0.7316758632659912, 2.051161289215088, 2.5369744300842285, -0.11951600015163422, -0.5609773397445679, 
147, 2909292597, 20.087778091430664, -77.15059661865234, 40.10150146484375, 9.571061134338379, 0.7407861351966858, 2.039546251296997, 2.482390880584717, -0.0952337384223938, -0.5921755433082581, 
148, 2909300930, 20.08922576904297, -77.14979553222656, 40.10459518432617, 9.568690299987793, 0.7210243940353394, 2.068763494491577, 2.547220230102539, -0.015266085043549538, -0.6538033485412598, 
149, 2909309263, 20.087047576904297, -77.15032196044922, 40.106849670410156, 9.589219093322754, 0.7588534951210022, 2.057373046875, 2.540304183959961, -0.10389132797718048, -0.5094414949417114, 
150, 2909317596, 20.082210540771484, -77.15145111083984, 40.11916732788086, 9.586936950683594, 0.7265322804450989, 2.0352463722229004, 2.5284197330474854, -0.17243504524230957, -0.4182804822921753, 
151, 2909325929, 20.083009719848633, -77.15182495117188, 40.11857604980469, 9.559189796447754, 0.737637460231781, 2.031883478164673, 2.5679166316986084, -0.11193420737981796, -0.5840302109718323, 
152, 2909334262, 20.081972122192383, -77.15164947509766, 40.11844253540039, 9.606759071350098, 0.7369005084037781, 2.1001360416412354, 2.4908692836761475, -0.07561322301626205, -0.5725038051605225, 
153, 2909342595, 20.079404830932617, -77.15238952636719, 40.120765686035156, 9.564861297607422, 0.7292707562446594, 2.0650763511657715, 2.4983997344970703, -0.12919819355010986, -0.4978894591331482, 
154, 2909350928, 20.074256896972656, -77.15216827392578, 40.124568939208984, 9.61047649383545, 0.7465285062789917, 2.037290096282959, 2.5495259761810303, -0.016341883689165115, -0.4600317180156708, 
155, 2909359261, 20.06634521484375, -77.15225219726562, 40.13109588623047, 9.574554443359375, 0.7087559103965759, 2.0341103076934814, 2.3528597354888916, -0.015342927537858486, -0.41938188672065735, 
156, 2909367594, 20.062549591064453, -77.15262603759766, 40.13760757446289, 9.61396312713623, 0.7222893834114075, 2.085757255554199, 2.5264217853546143, -0.0943884626030922, -0.47747498750686646, 
157, 2909375927, 20.061893463134766, -77.15249633789062, 40.139007568359375, 9.575355529785156, 0.7370895743370056, 2.0506670475006104, 2.618607521057129, -0.038882408291101456, -0.5559313297271729, 
158, 2909384260, 20.06276512145996, -77.15302276611328, 40.13713836669922, 9.583723068237305, 0.7483059763908386, 2.084970235824585, 2.5410985946655273, -0.15698964893817902, -0.5857207179069519, 
159, 2909392593, 20.0667724609375, -77.15422058105469, 40.13408660888672, 9.56587028503418, 0.7017297744750977, 2.0739452838897705, 2.6603071689605713, -0.22942669689655304, -0.6151769757270813, 
160, 2909400926, 20.070476531982422, -77.15494537353516, 40.131187438964844, 9.566917419433594, 0.7117975950241089, 2.04738712310791, 2.4983224868774414, -0.20637387037277222, -0.6614619493484497, 
161, 2909409259, 20.070531845092773, -77.156005859375, 40.131065368652344, 9.615931510925293, 0.7496079206466675, 2.088838815689087, 2.5263702869415283, -0.19095410406589508, -0.5429961085319519, 
162, 2909417592, 20.068161010742188, -77.15778350830078, 40.13352584838867, 9.553624153137207, 0.6720015406608582, 2.0630111694335938, 2.5324409008026123, -0.27005091309547424, -0.45408913493156433, 
163, 2909425925, 20.07907485961914, -77.15990447998047, 40.121768951416016, 9.570046424865723, 0.7541064023971558, 2.0147452354431152, 2.4675090312957764, -0.4143359065055847, -0.7934265732765198, 
164, 2909434258, 20.083833694458008, -77.1614761352539, 40.11826705932617, 9.598923683166504, 0.7336443662643433, 2.0362014770507812, 2.613408088684082, -0.30173569917678833, -0.6272414922714233, 
165, 2909442591, 20.08975601196289, -77.16260528564453, 40.11219787597656, 9.5591402053833, 0.7150397896766663, 2.045637607574463, 2.53802490234375, -0.25153177976608276, -0.69089275598526, 
166, 2909450924, 20.0904483795166, -77.16285705566406, 40.11350631713867, 9.577896118164062, 0.7470538020133972, 2.077084541320801, 2.633258581161499, -0.11487984657287598, -0.5767301321029663, 
167, 2909459257, 20.08970069885254, -77.16344451904297, 40.114261627197266, 9.574307441711426, 0.7252827882766724, 2.0792348384857178, 2.541534185409546, -0.12248727679252625, -0.5445074439048767, 
168, 2909467590, 20.087190628051758, -77.16365051269531, 40.1175651550293, 9.622493743896484, 0.7345790863037109, 2.046156644821167, 2.4737844467163086, -0.1016116812825203, -0.5254760980606079, 
169, 2909475923, 20.08083152770996, -77.16497802734375, 40.122867584228516, 9.592873573303223, 0.7509207725524902, 2.038803815841675, 2.3945086002349854, -0.16731217503547668, -0.39719992876052856, 
170, 2909484256, 20.079021453857422, -77.16514587402344, 40.11766815185547, 9.57668685913086, 0.7066901922225952, 2.069096565246582, 2.533158302307129, -0.0931333675980568, -0.5352351069450378, 
171, 2909492589, 20.07459831237793, -77.16546630859375, 40.122047424316406, 9.598149299621582, 0.7461298704147339, 2.0746212005615234, 2.5202996730804443, -0.06091064587235451, -0.46290042996406555, 
172, 2909500922, 20.07271385192871, -77.16667175292969, 40.11141586303711, 9.579378128051758, 0.7268511056900024, 2.040087938308716, 2.6016249656677246, -0.20550301671028137, -0.47235214710235596, 
173, 2909509255, 20.070308685302734, -77.16814422607422, 40.11362075805664, 9.600386619567871, 0.7113398909568787, 2.057042360305786, 2.5104384422302246, -0.2099342793226242, -0.4717886447906494, 
174, 2909517588, 20.06684684753418, -77.16857147216797, 40.12107849121094, 9.585474014282227, 0.7192529439926147, 2.0747792720794678, 2.5482704639434814, -0.10701627284288406, -0.4761686325073242, 
175, 2909525921, 20.06028938293457, -77.16805267333984, 40.127540588378906, 9.584704399108887, 0.7134100794792175, 2.0939323902130127, 2.5086967945098877, 0.047808971256017685, -0.44499608874320984, 
176, 2909534254, 20.061153411865234, -77.1679458618164, 40.13565444946289, 9.587447166442871, 0.721528947353363, 2.100376605987549, 2.5422513484954834, -0.0803774744272232, -0.6151770949363708, 
177, 2909542587, 20.056747436523438, -77.16827392578125, 40.140724182128906, 9.600919723510742, 0.7182618379592896, 2.071202039718628, 2.6067733764648438, -0.053584977984428406, -0.44594380259513855, 
178, 2909550920, 20.05356788635254, -77.1684799194336, 40.142578125, 9.570636749267578, 0.7137177586555481, 2.0609076023101807, 2.478318214416504, -0.09175019711256027, -0.5062141418457031, 
179, 2909559253, 20.048568725585938, -77.16900634765625, 40.14850997924805, 9.572281837463379, 0.7342429757118225, 2.043804883956909, 2.6357433795928955, -0.0684412345290184, -0.4182036519050598, 
180, 2909567586, 20.041196823120117, -77.16832733154297, 40.163578033447266, 9.59066390991211, 0.7264016270637512, 2.0784575939178467, 2.6411988735198975, 0.06835158169269562, -0.40629297494888306, 
181, 2909575919, 20.03971290588379, -77.16851806640625, 40.165733337402344, 9.572364807128906, 0.7126891613006592, 2.0598721504211426, 2.6054670810699463, -0.07082335650920868, -0.5239904522895813, 
182, 2909584252, 20.03251075744629, -77.16770935058594, 40.17772674560547, 9.57966136932373, 0.7358222007751465, 2.103477716445923, 2.604647636413574, 0.07027265429496765, -0.4218664765357971, 
183, 2909592585, 20.02388572692871, -77.16805267333984, 40.185569763183594, 9.575811386108398, 0.7389259934425354, 2.0565695762634277, 2.415614366531372, -0.03363148868083954, -0.3770159184932709, 
184, 2909600918, 20.016855239868164, -77.16742706298828, 40.18724060058594, 9.578825950622559, 0.7188789248466492, 2.042745351791382, 2.5200181007385254, 0.047808971256017685, -0.4346223771572113, 
185, 2909609251, 20.012792587280273, -77.16706848144531, 40.19157791137695, 9.615072250366211, 0.7260552048683167, 2.073695421218872, 2.5549561977386475, 0.009490074589848518, -0.49117860198020935, 
186, 2909617584, 20.006269454956055, -77.16667175292969, 40.19671630859375, 9.585152626037598, 0.7118646502494812, 2.092010259628296, 2.490971565246582, 0.016508374363183975, -0.446609765291214, 
187, 2909625917, 20.007450103759766, -77.16645050048828, 40.19618606567383, 9.55156421661377, 0.7337732315063477, 2.0586812496185303, 2.617941379547119, -0.049819689244031906, -0.6088759899139404, 
188, 2909634250, 20.006425857543945, -77.16566467285156, 40.189666748046875, 9.600204467773438, 0.738829493522644, 2.047666549682617, 2.5520873069763184, 0.010719558224081993, -0.5867710113525391, 
189, 2909642583, 19.999059677124023, -77.16513061523438, 40.1971549987793, 9.566515922546387, 0.7064718008041382, 2.0361671447753906, 2.5274717807769775, 0.05989889055490494, -0.4203808605670929, 
190, 2909650916, 19.993200302124023, -77.16436004638672, 40.201934814453125, 9.59791374206543, 0.7559159398078918, 2.0434296131134033, 2.517866611480713, 0.05162549391388893, -0.4725058078765869, 
191, 2909659249, 19.98843002319336, -77.16371154785156, 40.20637512207031, 9.585116386413574, 0.7107345461845398, 2.0701849460601807, 2.481443166732788, 0.046835631132125854, -0.5021670460700989, 
192, 2909667582, 19.98455238342285, -77.16287231445312, 40.21200180053711, 9.582742691040039, 0.7113413214683533, 2.0707952976226807, 2.503957748413086, 0.037793803960084915, -0.5300353169441223, 
193, 2909675915, 19.980878829956055, -77.16276550292969, 40.21689224243164, 9.588289260864258, 0.7227750420570374, 2.026524305343628, 2.671295642852783, -0.00835024006664753, -0.46961137652397156, 
194, 2909684248, 19.976709365844727, -77.16285705566406, 40.221927642822266, 9.57069206237793, 0.729266345500946, 2.0435235500335693, 2.6207590103149414, -0.059143275022506714, -0.4574446678161621, 
195, 2909692581, 19.9718017578125, -77.16346740722656, 40.22734069824219, 9.590287208557129, 0.7541415095329285, 2.0656535625457764, 2.584770679473877, -0.08731892704963684, -0.42324960231781006, 
196, 2909700914, 19.96677017211914, -77.16252136230469, 40.242103576660156, 9.572362899780273, 0.7504538297653198, 2.0628252029418945, 2.6411736011505127, 0.08039028942584991, -0.4812146723270416, 
197, 2909709247, 19.954008102416992, -77.16239929199219, 40.254493713378906, 9.572949409484863, 0.7240951061248779, 2.0687031745910645, 2.4582109451293945, 0.06353611499071121, -0.281705379486084, 
198, 2909717580, 19.950763702392578, -77.16227722167969, 40.25827407836914, 9.593520164489746, 0.7182134985923767, 2.04537034034729, 2.565150499343872, -0.04364665597677231, -0.5040881633758545, 
199, 2909725913, 19.94394874572754, -77.16169738769531, 40.264549255371094, 9.600102424621582, 0.7117165923118591, 2.0433242321014404, 2.454010486602783, 0.05756799504160881, -0.45455026626586914, 
200, 2909734246, 19.93299102783203, -77.16022491455078, 40.28290557861328, 9.58189582824707, 0.7259828448295593, 2.079498767852783, 2.528829574584961, 0.17242224514484406, -0.36769238114356995, 
201, 2909742579, 19.929269790649414, -77.15898132324219, 40.287330627441406, 9.566076278686523, 0.7082385420799255, 2.0685267448425293, 2.61448335647583, 0.12137304991483688, -0.5266543030738831, 
202, 2909750912, 19.922651290893555, -77.15743255615234, 40.30317687988281, 9.574198722839355, 0.7308247685432434, 2.0310781002044678, 2.573577404022217, 0.14573217928409576, -0.4766296446323395, 
203, 2909759245, 19.912750244140625, -77.15664672851562, 40.313045501708984, 9.57773208618164, 0.7066527009010315, 2.047787666320801, 2.5078771114349365, 0.11420106142759323, -0.37038183212280273, 
204, 2909767578, 19.906431198120117, -77.1557846069336, 40.319210052490234, 9.579670906066895, 0.7273019552230835, 2.061048984527588, 2.4559054374694824, 0.060436781495809555, -0.47706514596939087, 
205, 2909775911, 19.900798797607422, -77.1544189453125, 40.32536697387695, 9.565156936645508, 0.7122085690498352, 2.077094316482544, 2.5829012393951416, 0.144528329372406, -0.4887964725494385, 
206, 2909784244, 19.8995418548584, -77.15393829345703, 40.31824493408203, 9.576311111450195, 0.7172067165374756, 2.071223497390747, 2.524679660797119, -0.025076335296034813, -0.5754237771034241, 
207, 2909792577, 19.89891242980957, -77.15428161621094, 40.31910705566406, 9.580548286437988, 0.7295588254928589, 2.057094097137451, 2.5688133239746094, -0.09328705072402954, -0.5517818331718445, 
208, 2909800910, 19.896560668945312, -77.15478515625, 40.32183074951172, 9.583393096923828, 0.7434402704238892, 2.0363576412200928, 2.510079860687256, -0.1279687136411667, -0.5131043791770935, 
209, 2909809243, 19.897903442382812, -77.15461730957031, 40.31991958618164, 9.58908748626709, 0.7285622358322144, 2.1053249835968018, 2.4790735244750977, -0.062332239001989365, -0.6416493654251099, 
210, 2909817576, 19.90156364440918, -77.1544189453125, 40.31705856323242, 9.584985733032227, 0.7110949754714966, 2.0695104598999023, 2.4781389236450195, -0.10711872577667236, -0.7033156156539917, 
211, 2909825909, 19.897319793701172, -77.15414428710938, 40.32094955444336, 9.579543113708496, 0.7332521080970764, 2.087449550628662, 2.485490083694458, 0.001370361540466547, -0.5003228187561035, 
212, 2909834242, 19.895238876342773, -77.15472412109375, 40.319305419921875, 9.580526351928711, 0.7135999202728271, 2.0434200763702393, 2.450270414352417, -0.14559130370616913, -0.5283448100090027, 
213, 2909842575, 19.8968505859375, -77.15518188476562, 40.3182487487793, 9.58294677734375, 0.730856716632843, 2.041537046432495, 2.6082849502563477, -0.12645748257637024, -0.5949162840843201, 
214, 2909850908, 19.892711639404297, -77.15582275390625, 40.323936462402344, 9.604984283447266, 0.7176092267036438, 2.096555471420288, 2.5786235332489014, -0.11938796192407608, -0.4478905200958252, 
215, 2909859241, 19.88811492919922, -77.1555404663086, 40.32859802246094, 9.590030670166016, 0.6968480944633484, 2.0927093029022217, 2.5315189361572266, 0.007056721951812506, -0.48136836290359497, 
216, 2909867574, 19.88456916809082, -77.15606689453125, 40.33100509643555, 9.590338706970215, 0.7240340113639832, 2.062354326248169, 2.583259344100952, -0.11226719617843628, -0.4649495482444763, 
217, 2909875907, 19.881086349487305, -77.15496826171875, 40.3343620300293, 9.606977462768555, 0.7082188725471497, 2.0585644245147705, 2.512077808380127, 0.08492399007081985, -0.5460442900657654, 
218, 2909884240, 19.878992080688477, -77.15399932861328, 40.33934020996094, 9.60117244720459, 0.7392451763153076, 2.080806255340576, 2.5008842945098877, 0.03917697072029114, -0.5831336379051208, 
219, 2909892573, 19.869535446166992, -77.15380096435547, 40.34782028198242, 9.618425369262695, 0.7345494031906128, 2.0903031826019287, 2.397223472595215, 0.032184287905693054, -0.38088369369506836, 
220, 2909900906, 19.86582374572754, -77.15150451660156, 40.361000061035156, 9.586807250976562, 0.7365453839302063, 2.059176206588745, 2.4473376274108887, 0.2027110606431961, -0.6095932126045227, 
221, 2909909239, 19.86736488342285, -77.14939880371094, 40.35834503173828, 9.608295440673828, 0.7329890727996826, 2.0615134239196777, 2.4125661849975586, 0.1489083468914032, -0.7378692030906677, 
222, 2909917572, 19.86094093322754, -77.14611053466797, 40.37054443359375, 9.601519584655762, 0.7232947945594788, 2.0475707054138184, 2.447913885116577, 0.333689421415329, -0.5763202905654907, 
223, 2909925905, 19.860843658447266, -77.14285278320312, 40.3696403503418, 9.619521141052246, 0.7405041456222534, 2.0535731315612793, 2.4197640419006348, 0.2905038595199585, -0.7414297461509705, 
224, 2909934238, 19.857406616210938, -77.13970184326172, 40.37716293334961, 9.612709045410156, 0.7155380249023438, 2.0854685306549072, 2.4544200897216797, 0.3004421591758728, -0.647681474685669, 
225, 2909942571, 19.852542877197266, -77.13594818115234, 40.381229400634766, 9.563013076782227, 0.7169575095176697, 2.0685932636260986, 2.4248099327087402, 0.39068111777305603, -0.6379737854003906, 
226, 2909950904, 19.857219696044922, -77.13182830810547, 40.380096435546875, 9.599298477172852, 0.7358441352844238, 2.0582478046417236, 2.4210190773010254, 0.32618448138237, -0.9040033221244812, 
227, 2909959237, 19.857736587524414, -77.12883758544922, 40.37826156616211, 9.569961547851562, 0.7389644384384155, 2.055191993713379, 2.3880789279937744, 0.2559502422809601, -0.7535707950592041, 
228, 2909967570, 19.854055404663086, -77.1242446899414, 40.37919998168945, 9.581905364990234, 0.7311704754829407, 2.0839829444885254, 2.493584156036377, 0.4580209255218506, -0.6894071102142334, 
229, 2909975903, 19.853181838989258, -77.12014770507812, 40.379852294921875, 9.56246280670166, 0.7194647789001465, 2.085909843444824, 2.510284423828125, 0.4025404453277588, -0.7370495200157166, 
230, 2909984236, 19.857589721679688, -77.1162109375, 40.35581588745117, 9.565796852111816, 0.7156432867050171, 2.0656516551971436, 2.3744523525238037, 0.3025425374507904, -0.8957042098045349, 
231, 2909992569, 19.865550994873047, -77.11134338378906, 40.347572326660156, 9.56808090209961, 0.7139294147491455, 2.060927152633667, 2.5303919315338135, 0.4091489911079407, -0.992884635925293, 
232, 2910000902, 19.872377395629883, -77.10736083984375, 40.323421478271484, 9.562267303466797, 0.7315649390220642, 2.069453716278076, 2.456571578979492, 0.29014527797698975, -0.9394276738166809, 
233, 2910009235, 19.881824493408203, -77.1046371459961, 40.31361770629883, 9.574618339538574, 0.7054130434989929, 2.1168668270111084, 2.5285990238189697, 0.15444104373455048, -0.9469327330589294, 
234, 2910017568, 19.89352798461914, -77.10179138183594, 40.30064010620117, 9.558636665344238, 0.7271681427955627, 2.092346668243408, 2.6400463581085205, 0.12324287742376328, -0.9809739589691162, 
235, 2910025901, 19.905916213989258, -77.1003646850586, 40.287681579589844, 9.582748413085938, 0.7258105278015137, 2.099472999572754, 2.505955934524536, -0.02220754325389862, -0.9727774262428284, 
236, 2910034234, 19.91653823852539, -77.09879302978516, 40.26951217651367, 9.571269035339355, 0.7344064116477966, 2.0369973182678223, 2.546989917755127, -0.01273027528077364, -0.9203707575798035, 
237, 2910042567, 19.926685333251953, -77.09646606445312, 40.260292053222656, 9.574297904968262, 0.7589496374130249, 2.03600811958313, 2.6761367321014404, 0.11286912858486176, -0.9146842956542969, 
238, 2910050900, 19.933692932128906, -77.09416198730469, 40.2486457824707, 9.601765632629395, 0.750678539276123, 2.1029510498046875, 2.6426331996917725, 0.11140911281108856, -0.8386868238449097, 
239, 2910059233, 19.936809539794922, -77.09123992919922, 40.24677276611328, 9.562851905822754, 0.7346312403678894, 2.1020827293395996, 2.688764810562134, 0.24585823714733124, -0.7541599273681641, 
240, 2910067566, 19.942890167236328, -77.08854675292969, 40.241783142089844, 9.602258682250977, 0.7515913248062134, 2.0979769229888916, 2.61102557182312, 0.17301136255264282, -0.8429389595985413, 
241, 2910075899, 19.945858001708984, -77.08680725097656, 40.23927307128906, 9.57654857635498, 0.739101231098175, 2.0684306621551514, 2.5978596210479736, 0.10784874111413956, -0.7225263714790344, 
242, 2910084232, 19.94904136657715, -77.08467102050781, 40.242549896240234, 9.58413314819336, 0.7404884696006775, 2.0568275451660156, 2.5376408100128174, 0.11835058778524399, -0.7560810446739197, 
243, 2910092565, 19.948589324951172, -77.08295440673828, 40.24246597290039, 9.57185173034668, 0.7462764382362366, 2.0837771892547607, 2.476269006729126, 0.12723872065544128, -0.659361720085144, 
244, 2910100898, 19.936939239501953, -77.08069610595703, 40.25696563720703, 9.563541412353516, 0.7519371509552002, 2.0854203701019287, 2.5638952255249023, 0.2790798842906952, -0.37332746386528015, 
245, 2910109231, 19.923355102539062, -77.07966613769531, 40.27017593383789, 9.580322265625, 0.7067657709121704, 2.0813488960266113, 2.452115058898926, 0.17001450061798096, -0.2942051291465759, 
246, 2910117564, 19.91446876525879, -77.07750701904297, 40.274513244628906, 9.570564270019531, 0.723342776298523, 2.0699141025543213, 2.4420993328094482, 0.23533077538013458, -0.4684843420982361, 
247, 2910125897, 19.904756546020508, -77.0760498046875, 40.283607482910156, 9.59749698638916, 0.708545446395874, 2.0437309741973877, 2.434619903564453, 0.1786208599805832, -0.41707655787467957, 
248, 2910134230, 19.901077270507812, -77.07386016845703, 40.2574348449707, 9.598832130432129, 0.7429952025413513, 2.101839303970337, 2.4252710342407227, 0.18515251576900482, -0.6000134944915771, 
249, 2910142563, 19.897472381591797, -77.07330322265625, 40.26121520996094, 9.570197105407715, 0.7373164296150208, 2.067399501800537, 2.553265333175659, 0.034720100462436676, -0.5151278972625732, 
250, 2910150896, 19.892274856567383, -77.07223510742188, 40.26205825805664, 9.574641227722168, 0.7352607846260071, 2.0802924633026123, 2.526165246963501, 0.0774446353316307, -0.5015779733657837, 
251, 2910159229, 19.889829635620117, -77.07127380371094, 40.26447296142578, 9.572308540344238, 0.7261922359466553, 2.0834269523620605, 2.52844500541687, 0.06397154927253723, -0.5635899901390076, 
252, 2910167562, 19.884231567382812, -77.07106018066406, 40.26885223388672, 9.558967590332031, 0.7339985966682434, 2.1012017726898193, 2.3964807987213135, -0.028201274573802948, -0.48059991002082825, 
253, 2910175895, 19.884153366088867, -77.07089233398438, 40.26817321777344, 9.585366249084473, 0.7522481679916382, 2.110649585723877, 2.4559569358825684, -0.04661790654063225, -0.6110788583755493, 
254, 2910184228, 19.878923416137695, -77.07064819335938, 40.2724609375, 9.58002758026123, 0.7010520696640015, 2.074470043182373, 2.5254480838775635, -0.015086784027516842, -0.46564117074012756, 
255, 2910192561, 19.873132705688477, -77.07073974609375, 40.278114318847656, 9.584720611572266, 0.7340614199638367, 2.070789337158203, 2.5066733360290527, -0.022335616871714592, -0.438925564289093, 
256, 2910200894, 19.867334365844727, -77.07093811035156, 40.283416748046875, 9.590331077575684, 0.7446149587631226, 2.058955192565918, 2.4301631450653076, -0.06413804739713669, -0.45257794857025146, 
257, 2910209227, 19.867610931396484, -77.07101440429688, 40.28240203857422, 9.575214385986328, 0.7132413983345032, 2.0522100925445557, 2.452242851257324, -0.08165818452835083, -0.6089784502983093, 
258, 2910217560, 19.867740631103516, -77.07037353515625, 40.285400390625, 9.572019577026367, 0.7118443250656128, 2.0969512462615967, 2.63702392578125, -0.012858346104621887, -0.5961713194847107, 
259, 2910225893, 19.866193771362305, -77.0684814453125, 40.28608703613281, 9.597620010375977, 0.7236009836196899, 2.0974953174591064, 2.4343385696411133, 0.15333962440490723, -0.6454787850379944, 
260, 2910234226, 19.868295669555664, -77.06674194335938, 40.29136657714844, 9.581707000732422, 0.71028071641922, 2.082775354385376, 2.56048846244812, 0.09255704283714294, -0.711768388748169, 
261, 2910242559, 19.871612548828125, -77.06634521484375, 40.28753662109375, 9.58301067352295, 0.7253405451774597, 2.039067029953003, 2.4880259037017822, -0.05683799460530281, -0.6986026167869568, 
262, 2910250892, 19.873899459838867, -77.06593322753906, 40.29400634765625, 9.601768493652344, 0.734708309173584, 2.0705833435058594, 2.560283899307251, -0.058912742882966995, -0.663690447807312, 
263, 2910259225, 19.874364852905273, -77.06517028808594, 40.29355239868164, 9.567521095275879, 0.7150635719299316, 2.1113977432250977, 2.541534185409546, 0.01476660743355751, -0.6287270188331604, 
264, 2910267558, 19.87470054626465, -77.0638427734375, 40.274723052978516, 9.582239151000977, 0.7289289236068726, 2.0471954345703125, 2.421967029571533, 0.04873108118772507, -0.6758060455322266, 
265, 2910275891, 19.876731872558594, -77.0635986328125, 40.27272415161133, 9.563352584838867, 0.7080920934677124, 2.052877902984619, 2.549628257751465, -0.0561976283788681, -0.6461191177368164, 
266, 2910284224, 19.883094787597656, -77.06135559082031, 40.26292419433594, 9.555488586425781, 0.7200846076011658, 2.0533628463745117, 2.3794729709625244, 0.09073843061923981, -0.8780816793441772, 
267, 2910292557, 19.895694732666016, -77.05950927734375, 40.24940872192383, 9.562435150146484, 0.7151860594749451, 2.0983009338378906, 2.4676880836486816, 0.01625223271548748, -1.0030277967453003, 
268, 2910300890, 19.9173583984375, -77.05693054199219, 40.22893524169922, 9.600364685058594, 0.7040573954582214, 2.109593391418457, 2.581620454788208, 0.007492163218557835, -1.2480536699295044, 
269, 2910309223, 19.937786102294922, -77.05486297607422, 40.208744049072266, 9.586565971374512, 0.7115543484687805, 2.0601611137390137, 2.6272904872894287, -0.019236290827393532, -1.180047869682312, 
270, 2910317556, 19.95509147644043, -77.05227661132812, 40.187049865722656, 9.573752403259277, 0.7466745376586914, 2.0940139293670654, 2.5921990871429443, 0.05024232342839241, -1.1332250833511353, 
271, 2910325889, 19.96924591064453, -77.05107879638672, 40.17322540283203, 9.561817169189453, 0.733904242515564, 2.0537655353546143, 2.6198110580444336, -0.05993730574846268, -0.9840989112854004, 
272, 2910334222, 19.983736038208008, -77.04951477050781, 40.15945816040039, 9.572327613830566, 0.7481383085250854, 2.0909502506256104, 2.5612316131591797, -0.04474806785583496, -1.0245951414108276, 
273, 2910342555, 20.003137588500977, -77.047607421875, 40.13963317871094, 9.580599784851074, 0.7269103527069092, 2.1023151874542236, 2.5513699054718018, -0.03240200877189636, -1.1660113334655762, 
274, 2910350888, 20.019615173339844, -77.0469970703125, 40.12327575683594, 9.596298217773438, 0.7340596914291382, 2.0699243545532227, 2.638099431991577, -0.16672305762767792, -1.02070152759552, 
275, 2910359221, 20.03515625, -77.04653930664062, 40.1085090637207, 9.582757949829102, 0.7219975590705872, 2.0499427318573, 2.6770589351654053, -0.14856256544589996, -0.9786430597305298, 
276, 2910367554, 20.052705764770508, -77.04512023925781, 40.092567443847656, 9.579143524169922, 0.730381965637207, 2.0821807384490967, 2.6839492321014404, -0.07996764034032822, -1.0727242231369019, 
277, 2910375887, 20.07737159729004, -77.04497528076172, 40.069053649902344, 9.6032075881958, 0.7248969078063965, 2.0913922786712646, 2.7454745769500732, -0.2673870325088501, -1.1879626512527466, 
278, 2910384220, 20.096345901489258, -77.04493713378906, 40.05706024169922, 9.560199737548828, 0.7529852390289307, 2.074096918106079, 2.7012901306152344, -0.2493802160024643, -1.049133539199829, 
279, 2910392553, 20.118019104003906, -77.04608154296875, 40.03653335571289, 9.548437118530273, 0.7552923560142517, 2.0610711574554443, 2.7422986030578613, -0.38423916697502136, -1.0561517477035522, 
280, 2910400886, 20.132448196411133, -77.04817199707031, 40.0262336730957, 9.57020378112793, 0.7570363283157349, 2.064512252807617, 2.720090866088867, -0.44742944836616516, -0.8387893438339233, 
281, 2910409219, 20.143362045288086, -77.05050659179688, 40.016929626464844, 9.594230651855469, 0.7848197817802429, 2.0714101791381836, 2.757974624633789, -0.41653871536254883, -0.7241144776344299, 
282, 2910417552, 20.149385452270508, -77.05233001708984, 40.015499114990234, 9.590628623962402, 0.7475946545600891, 2.073559522628784, 2.7545166015625, -0.3290148675441742, -0.6284196972846985, 
283, 2910425885, 20.151426315307617, -77.0551986694336, 40.01525115966797, 9.574311256408691, 0.7475612163543701, 2.0580737590789795, 2.7520573139190674, -0.3922308087348938, -0.4736071825027466, 
284, 2910434218, 20.14999771118164, -77.05776977539062, 40.0138053894043, 9.558232307434082, 0.7386288046836853, 2.1106486320495605, 2.6995482444763184, -0.3546546995639801, -0.4098789691925049, 
285, 2910442551, 20.153690338134766, -77.05966186523438, 40.01163864135742, 9.589054107666016, 0.7526534795761108, 2.058875560760498, 2.7282874584198, -0.29779109358787537, -0.5623605251312256, 
286, 2910450884, 20.15461540222168, -77.0610122680664, 40.005714416503906, 9.567648887634277, 0.7399411797523499, 2.0649964809417725, 2.688124418258667, -0.23444710671901703, -0.5244771242141724, 
287, 2910459217, 20.153114318847656, -77.06297302246094, 40.008140563964844, 9.600065231323242, 0.7290487885475159, 2.089057207107544, 2.6424031257629395, -0.26462069153785706, -0.4443557858467102, 
288, 2910467550, 20.14409637451172, -77.0648193359375, 40.022552490234375, 9.591075897216797, 0.7373722195625305, 2.0826168060302734, 2.6481659412384033, -0.20716792345046997, -0.254067599773407, 
289, 2910475883, 20.140195846557617, -77.06735229492188, 40.02664566040039, 9.559847831726074, 0.719180166721344, 2.076631546020508, 2.5555450916290283, -0.3079087436199188, -0.3800128102302551, 
290, 2910484216, 20.13677978515625, -77.06877136230469, 40.03252410888672, 9.591890335083008, 0.7512866854667664, 2.04263973236084, 2.6001906394958496, -0.21175290644168854, -0.4294227063655853, 
291, 2910492549, 20.137292861938477, -77.07106018066406, 40.03217315673828, 9.593174934387207, 0.7263841032981873, 2.0752179622650146, 2.5612568855285645, -0.3230467438697815, -0.5002203583717346, 
292, 2910500882, 20.130210876464844, -77.07190704345703, 40.046138763427734, 9.581388473510742, 0.7378469109535217, 2.080188274383545, 2.5650482177734375, -0.11060227453708649, -0.36661654710769653, 
293, 2910509215, 20.123233795166016, -77.0732421875, 40.053565979003906, 9.610699653625488, 0.7481870055198669, 2.0533041954040527, 2.5664312839508057, -0.15148259699344635, -0.342820942401886, 
294, 2910517548, 20.11176109313965, -77.07378387451172, 40.06537628173828, 9.564007759094238, 0.7308833599090576, 2.054131031036377, 2.52278470993042, -0.03291429579257965, -0.2789134085178375, 
295, 2910525881, 20.104066848754883, -77.0733642578125, 40.07301330566406, 9.611371040344238, 0.7425359487533569, 2.05849289894104, 2.5072879791259766, 0.04903845489025116, -0.4118000566959381, 
296, 2910534214, 20.093284606933594, -77.07398986816406, 40.086585998535156, 9.591964721679688, 0.7194823622703552, 2.0447914600372314, 2.4935073852539062, -0.06367699056863785, -0.2937440574169159, 
297, 2910542547, 20.087242126464844, -77.07398223876953, 40.09266662597656, 9.560664176940918, 0.7268957495689392, 2.0886619091033936, 2.524782419204712, -0.006429173052310944, -0.4348272383213043, 
298, 2910550880, 20.080121994018555, -77.07395935058594, 40.09364318847656, 9.617008209228516, 0.7420362234115601, 2.124833106994629, 2.4033195972442627, -0.027432844042778015, -0.43264999985694885, 
299, 2910559213, 20.069124221801758, -77.0732421875, 40.1042366027832, 9.537424087524414, 0.7500342726707458, 2.0411102771759033, 2.4637436866760254, 0.11906776577234268, -0.3495062589645386, 
300, 2910567546, 20.06203269958496, -77.0721435546875, 40.113094329833984, 9.609023094177246, 0.7136834263801575, 2.056363582611084, 2.4573142528533936, 0.0914556160569191, -0.4661022126674652, 
301, 2910575879, 20.050979614257812, -77.07098388671875, 40.12361526489258, 9.54538631439209, 0.7282629013061523, 2.03892183303833, 2.4423558712005615, 0.15961509943008423, -0.36851203441619873, 
302, 2910584212, 20.040721893310547, -77.06979370117188, 40.133750915527344, 9.56664752960205, 0.7196056246757507, 2.091470956802368, 2.472273349761963, 0.14183883368968964, -0.3896437883377075, 
303, 2910592545, 20.028364181518555, -77.06781005859375, 40.14557647705078, 9.588737487792969, 0.7618340849876404, 2.0692665576934814, 2.4412288665771484, 0.271165132522583, -0.37020254135131836, 
304, 2910600878, 20.010723114013672, -77.06605529785156, 40.17150115966797, 9.546439170837402, 0.7408949136734009, 2.0674922466278076, 2.3458411693573, 0.26271238923072815, -0.2487398236989975, 
305, 2910609211, 19.99404525756836, -77.06422424316406, 40.18705749511719, 9.60106086730957, 0.7462273240089417, 2.082162618637085, 2.3617987632751465, 0.2856115400791168, -0.2690262794494629, 
306, 2910617544, 19.97913932800293, -77.06332397460938, 40.19481658935547, 9.56869888305664, 0.7201229333877563, 2.0705926418304443, 2.47342586517334, 0.14335007965564728, -0.25027671456336975, 
307, 2910625877, 19.967384338378906, -77.06158447265625, 40.20499801635742, 9.594868659973145, 0.718257486820221, 2.0796329975128174, 2.321584463119507, 0.22626332938671112, -0.40011999011039734, 
308, 2910634210, 19.951215744018555, -77.05990600585938, 40.22158432006836, 9.569502830505371, 0.7301876544952393, 2.077047109603882, 2.385364294052124, 0.24191367626190186, -0.27404671907424927, 
309, 2910642543, 19.933719635009766, -77.059326171875, 40.23899459838867, 9.567370414733887, 0.730493426322937, 2.050863742828369, 2.471299886703491, 0.1566694676876068, -0.17061641812324524, 
310, 2910650876, 19.921009063720703, -77.05789184570312, 40.247703552246094, 9.568634033203125, 0.7403769493103027, 2.0711169242858887, 2.3942267894744873, 0.19132553040981293, -0.3532203435897827, 
311, 2910659209, 19.90629005432129, -77.05691528320312, 40.26205825805664, 9.585837364196777, 0.7311270833015442, 2.1041111946105957, 2.4547019004821777, 0.1797735095024109, -0.26323750615119934, 
312, 2910667542, 19.88855743408203, -77.05657196044922, 40.27769470214844, 9.594949722290039, 0.7351248264312744, 2.0842983722686768, 2.418022394180298, 0.10375045984983444, -0.16843922436237335, 
313, 2910675875, 19.87430763244629, -77.05585479736328, 40.292633056640625, 9.595237731933594, 0.726107656955719, 2.043506622314453, 2.578751564025879, 0.15254558622837067, -0.2359839677810669, 
314, 2910684208, 19.860877990722656, -77.05500030517578, 40.311038970947266, 9.603694915771484, 0.7392957210540771, 2.058685541152954, 2.407904624938965, 0.1271362602710724, -0.30982980132102966, 
315, 2910692541, 19.84760093688965, -77.0538558959961, 40.32291793823242, 9.575789451599121, 0.7200514078140259, 2.069841146469116, 2.327091693878174, 0.16635166108608246, -0.33157628774642944, 
316, 2910700874, 19.8319091796875, -77.05309295654297, 40.33095932006836, 9.598875045776367, 0.7353727221488953, 2.0874338150024414, 2.409902572631836, 0.13889318704605103, -0.24046644568443298, 
317, 2910709207, 19.82040023803711, -77.05245208740234, 40.34172821044922, 9.585321426391602, 0.7023288011550903, 2.0923664569854736, 2.419687271118164, 0.10505679249763489, -0.3405156433582306, 
318, 2910717540, 19.80638313293457, -77.05201721191406, 40.35210037231445, 9.594826698303223, 0.712251603603363, 2.0674233436584473, 2.404369831085205, 0.0841299518942833, -0.27099859714508057, 
319, 2910725873, 19.797470092773438, -77.05054473876953, 40.360939025878906, 9.555575370788574, 0.7441020607948303, 2.0780344009399414, 2.5010125637054443, 0.17903070151805878, -0.422762930393219, 
320, 2910734206, 19.79149055480957, -77.05020904541016, 40.36713790893555, 9.551219940185547, 0.6994649171829224, 2.0726349353790283, 2.488948106765747, 0.003624414326623082, -0.4589815139770508, 
321, 2910742539, 19.78598976135254, -77.05008697509766, 40.372528076171875, 9.596311569213867, 0.7266308665275574, 2.117475748062134, 2.5081589221954346, -0.0024077382404357195, -0.45465272665023804, 
322, 2910750872, 19.78044319152832, -77.05048370361328, 40.37757110595703, 9.590558052062988, 0.7131333351135254, 2.1028473377227783, 2.5153820514678955, -0.07866132259368896, -0.43749117851257324, 
323, 2910759205, 19.776018142700195, -77.04960632324219, 40.382667541503906, 9.574851036071777, 0.7192593216896057, 2.08443021774292, 2.603034257888794, 0.07826430350542068, -0.49266427755355835, 
324, 2910767538, 19.77025604248047, -77.04957580566406, 40.41117477416992, 9.572625160217285, 0.7142689824104309, 2.044243812561035, 2.467611312866211, -0.02750968746840954, -0.4620295464992523, 
325, 2910775871, 19.762203216552734, -77.04869079589844, 40.41880416870117, 9.580876350402832, 0.7473504543304443, 2.066028356552124, 2.4675090312957764, 0.10282834619283676, -0.4292689859867096, 
326, 2910784204, 19.752859115600586, -77.04786682128906, 40.43194580078125, 9.587709426879883, 0.732403576374054, 2.11224627494812, 2.4747323989868164, 0.09383775293827057, -0.3979939818382263, 
327, 2910792537, 19.74453353881836, -77.04789733886719, 40.439849853515625, 9.581701278686523, 0.7379624247550964, 2.0881786346435547, 2.457468271255493, -0.003995820879936218, -0.38275355100631714, 
328, 2910800870, 19.735628128051758, -77.04722595214844, 40.44641876220703, 9.577012062072754, 0.7214215397834778, 2.050001859664917, 2.4457881450653076, 0.06773684918880463, -0.4071894884109497, 
329, 2910809203, 19.725143432617188, -77.04621887207031, 40.45652770996094, 9.5714750289917, 0.7349197268486023, 2.0904808044433594, 2.4627444744110107, 0.14068618416786194, -0.3711758255958557, 
330, 2910817536, 19.709129333496094, -77.04531860351562, 40.47285842895508, 9.549835205078125, 0.7120281457901001, 2.11906099319458, 2.4613869190216064, 0.15387751162052155, -0.2245856076478958, 
331, 2910825869, 19.69734001159668, -77.04471588134766, 40.4835090637207, 9.607244491577148, 0.7324971556663513, 2.0527536869049072, 2.3687918186187744, 0.10026692599058151, -0.3429234027862549, 
332, 2910834202, 19.68670654296875, -77.04337310791016, 40.492347717285156, 9.581822395324707, 0.6899320483207703, 2.079511880874634, 2.449707269668579, 0.15643896162509918, -0.38662129640579224, 
333, 2910842535, 19.67756462097168, -77.04244232177734, 40.501068115234375, 9.565483093261719, 0.709729015827179, 2.0731394290924072, 2.4605159759521484, 0.11755650490522385, -0.4026813507080078, 
334, 2910850868, 19.665353775024414, -77.04143524169922, 40.51243591308594, 9.587448120117188, 0.727810263633728, 2.0978829860687256, 2.4128737449645996, 0.13525596261024475, -0.34154024720191956, 
335, 2910859201, 19.65538215637207, -77.0409164428711, 40.521728515625, 9.568143844604492, 0.7091206908226013, 2.065688133239746, 2.42893385887146, 0.07626637816429138, -0.37186744809150696, 
336, 2910867534, 19.653791427612305, -77.03909301757812, 40.51786422729492, 9.601875305175781, 0.7128411531448364, 2.112168312072754, 2.527984380722046, 0.13474369049072266, -0.6230406165122986, 
337, 2910875867, 19.64849281311035, -77.03816223144531, 40.52375793457031, 9.579241752624512, 0.717106819152832, 2.1128129959106445, 2.5884337425231934, 0.09030298888683319, -0.4750160276889801, 
338, 2910884200, 19.64316749572754, -77.03777313232422, 40.52961349487305, 9.555683135986328, 0.7175809741020203, 2.071718454360962, 2.5636136531829834, 0.014100637286901474, -0.46136364340782166, 
339, 2910892533, 19.63966941833496, -77.03697967529297, 40.53239440917969, 9.567639350891113, 0.7195554971694946, 2.069002389907837, 2.442868232727051, 0.04588790237903595, -0.548323929309845, 
340, 2910900866, 19.635194778442383, -77.03533172607422, 40.53597640991211, 9.579682350158691, 0.7273492217063904, 2.084200620651245, 2.5540082454681396, 0.14145462214946747, -0.5361571907997131, 
341, 2910909199, 19.631576538085938, -77.03466796875, 40.53921127319336, 9.564236640930176, 0.7000278830528259, 2.0933022499084473, 2.486361026763916, 0.0421738401055336, -0.5303939580917358, 
342, 2910917532, 19.627792358398438, -77.03388977050781, 40.544742584228516, 9.580711364746094, 0.7329279184341431, 2.069838762283325, 2.506622076034546, 0.03469448164105415, -0.5308294296264648, 
343, 2910925865, 19.62407875061035, -77.03304290771484, 40.54811096191406, 9.570487022399902, 0.7087319493293762, 2.0763015747070312, 2.4873597621917725, 0.0581827349960804, -0.5342872738838196, 
344, 2910934198, 19.623802185058594, -77.03219604492188, 40.52286911010742, 9.598849296569824, 0.7174994349479675, 2.0733485221862793, 2.4958128929138184, 0.0128199253231287, -0.6244750618934631, 
345, 2910942531, 19.6274356842041, -77.0314712524414, 40.51896286010742, 9.555797576904297, 0.7309231758117676, 2.1021993160247803, 2.518148422241211, -0.019774187356233597, -0.7149701118469238, 
346, 2910950864, 19.629322052001953, -77.03099822998047, 40.51356506347656, 9.587305068969727, 0.7223517894744873, 2.0866587162017822, 2.531928777694702, -0.05281655490398407, -0.6591823697090149, 
347, 2910959197, 19.62761116027832, -77.02962493896484, 40.514122009277344, 9.559444427490234, 0.7387064695358276, 2.0924489498138428, 2.398632287979126, 0.09427320212125778, -0.627267062664032, 
348, 2910967530, 19.626548767089844, -77.02945709228516, 40.516239166259766, 9.560957908630371, 0.7143422365188599, 2.0989532470703125, 2.5375125408172607, -0.053764279931783676, -0.5708644986152649, 
349, 2910975863, 19.62744903564453, -77.03014373779297, 40.514522552490234, 9.580425262451172, 0.7197968363761902, 2.076244354248047, 2.441920280456543, -0.15934617817401886, -0.6034713983535767, 
350, 2910984196, 19.62701988220215, -77.03044128417969, 40.49919891357422, 9.560264587402344, 0.7306468486785889, 2.0893776416778564, 2.459184408187866, -0.12238482385873795, -0.5809820890426636, 
351, 2910992529, 19.62775421142578, -77.03069305419922, 40.49835205078125, 9.57790756225586, 0.7279717922210693, 2.1128783226013184, 2.5278561115264893, -0.10345588624477386, -0.5969653129577637, 
352, 2911000862, 19.62787437438965, -77.03075408935547, 40.49995040893555, 9.600814819335938, 0.7521567940711975, 2.086153268814087, 2.4489898681640625, -0.08995719254016876, -0.6163809895515442, 
353, 2911009195, 19.625905990600586, -77.03103637695312, 40.50210189819336, 9.581643104553223, 0.7195572257041931, 2.0797762870788574, 2.5595664978027344, -0.07896868884563446, -0.5184321403503418, 
354, 2911017528, 19.626056671142578, -77.03107452392578, 40.50112533569336, 9.57651424407959, 0.7043241262435913, 2.116132974624634, 2.5884337425231934, -0.09169896692037582, -0.580008864402771, 
355, 2911025861, 19.625059127807617, -77.03117370605469, 40.50221633911133, 9.569272994995117, 0.7213752865791321, 2.0798840522766113, 2.544710397720337, -0.06506015360355377, -0.5555983781814575, 
356, 2911034194, 19.620744705200195, -77.03096008300781, 40.50284194946289, 9.567511558532715, 0.7233148813247681, 2.075455904006958, 2.701366662979126, -0.012474131770431995, -0.4498627781867981, 
357, 2911042527, 19.617277145385742, -77.03231811523438, 40.506587982177734, 9.543341636657715, 0.7176660895347595, 2.058154582977295, 2.55475115776062, -0.18624110519886017, -0.43674832582473755, 
358, 2911050860, 19.61676788330078, -77.03407287597656, 40.50442886352539, 9.593484878540039, 0.7033141851425171, 2.1065282821655273, 2.5549304485321045, -0.27138280868530273, -0.5059323906898499, 
359, 2911059193, 19.617734909057617, -77.03472900390625, 40.50338363647461, 9.569211959838867, 0.7073399424552917, 2.0862154960632324, 2.5277280807495117, -0.15442821383476257, -0.5867452621459961, 
360, 2911067526, 19.612594604492188, -77.0362548828125, 40.506961822509766, 9.602184295654297, 0.7161710858345032, 2.0443758964538574, 2.566277503967285, -0.20219877362251282, -0.3898230791091919, 
361, 2911075859, 19.608259201049805, -77.03685760498047, 40.511268615722656, 9.582413673400879, 0.6937680244445801, 2.0891835689544678, 2.5168676376342773, -0.10038219392299652, -0.4521169066429138, 
362, 2911084192, 19.602123260498047, -77.03819274902344, 40.50334167480469, 9.565200805664062, 0.7307034134864807, 2.0651140213012695, 2.5753703117370605, -0.17133359611034393, -0.37020254135131836, 
363, 2911092525, 19.591882705688477, -77.03701782226562, 40.51287078857422, 9.603981971740723, 0.7260653376579285, 2.0731794834136963, 2.420814275741577, 0.14924132823944092, -0.3903096914291382, 
364, 2911100858, 19.58549690246582, -77.03851318359375, 40.5200309753418, 9.548990249633789, 0.7035751342773438, 2.1060256958007812, 2.5490646362304688, -0.1905699074268341, -0.36379894614219666, 
365, 2911109191, 19.576805114746094, -77.03916931152344, 40.5286979675293, 9.590874671936035, 0.7348369359970093, 2.0590968132019043, 2.5061094760894775, -0.06301102787256241, -0.34197568893432617, 
366, 2911117524, 19.562044143676758, -77.03949737548828, 40.54740524291992, 9.595569610595703, 0.724223256111145, 2.091259241104126, 2.3656156063079834, -0.0007940413197502494, -0.23157832026481628, 
367, 2911125857, 19.545085906982422, -77.04100799560547, 40.56277084350586, 9.565999031066895, 0.7390464544296265, 2.0641279220581055, 2.298506259918213, -0.09892216324806213, -0.13434666395187378, 
368, 2911134190, 19.522825241088867, -77.0413818359375, 40.581356048583984, 9.579947471618652, 0.7157163619995117, 2.0780367851257324, 2.30047869682312, 0.05646658316254616, -0.045414038002491, 
369, 2911142523, 19.49242401123047, -77.04199981689453, 40.61021041870117, 9.56682300567627, 0.7385848164558411, 2.0876009464263916, 2.274172782897949, 0.12898048758506775, 0.16781166195869446, 
370, 2911150856, 19.453868865966797, -77.04328155517578, 40.65026092529297, 9.586030960083008, 0.742633044719696, 2.0840401649475098, 2.3771419525146484, 0.1130228266119957, 0.42648985981941223, 
371, 2911159189, 19.415319442749023, -77.04499816894531, 40.687442779541016, 9.581073760986328, 0.7349535226821899, 2.0826308727264404, 2.2582151889801025, 0.06978598237037659, 0.42513230443000793, 
372, 2911167522, 19.363862991333008, -77.0467529296875, 40.73044204711914, 9.578873634338379, 0.7392918467521667, 2.084812641143799, 2.2155158519744873, 0.16402073204517365, 0.7490754127502441, 
373, 2911175855, 19.310239791870117, -77.04784393310547, 40.78178787231445, 9.569284439086914, 0.6895719170570374, 2.0978775024414062, 2.114314079284668, 0.2721896469593048, 0.7597309947013855, 
374, 2911184188, 19.260324478149414, -77.04841613769531, 40.82707595825195, 9.564736366271973, 0.6925395131111145, 2.0929746627807617, 2.1715619564056396, 0.27528899908065796, 0.654533326625824, 
375, 2911192521, 19.223739624023438, -77.05008697509766, 40.86234664916992, 9.581822395324707, 0.6668038368225098, 2.1179332733154297, 2.2734298706054688, 0.058566946536302567, 0.37467220425605774, 
376, 2911200854, 19.199691772460938, -77.05221557617188, 40.88600540161133, 9.590226173400879, 0.6732758283615112, 2.110809326171875, 2.3318307399749756, -0.12717469036579132, 0.07590779662132263, 
377, 2911209187, 19.187335968017578, -77.05268096923828, 40.89802932739258, 9.584942817687988, 0.6648622751235962, 2.0953714847564697, 2.460618495941162, -0.014267127960920334, -0.26218730211257935, 
378, 2911217520, 19.177669525146484, -77.05254364013672, 40.89484405517578, 9.566214561462402, 0.67830491065979, 2.0879836082458496, 2.3745293617248535, 0.005878467578440905, -0.37962859869003296, 
379, 2911225853, 19.17686653137207, -77.05248260498047, 40.89511489868164, 9.591036796569824, 0.6779701113700867, 2.0902421474456787, 2.4752700328826904, -0.0561976283788681, -0.5824933052062988, 
380, 2911234186, 19.17694854736328, -77.05204010009766, 40.898597717285156, 9.58889102935791, 0.6930781006813049, 2.0622150897979736, 2.4660234451293945, -0.03273499384522438, -0.6315702199935913, 
381, 2911242519, 19.17728042602539, -77.0498275756836, 40.897735595703125, 9.592696189880371, 0.7050748467445374, 2.0705442428588867, 2.476858139038086, 0.1760338395833969, -0.6953496336936951, 
382, 2911250852, 19.172433853149414, -77.04837799072266, 40.90586853027344, 9.56251049041748, 0.7046388387680054, 2.0583505630493164, 2.482570171356201, 0.12022040039300919, -0.5359522700309753, 
383, 2911259185, 19.172466278076172, -77.04649353027344, 40.90487289428711, 9.597418785095215, 0.732451856136322, 2.098738670349121, 2.423964738845825, 0.13994337618350983, -0.6867688894271851, 
384, 2911267518, 19.16591453552246, -77.04432678222656, 40.91487121582031, 9.583053588867188, 0.6976557374000549, 2.103848695755005, 2.419687271118164, 0.2057463526725769, -0.5317258834838867, 
385, 2911275851, 19.16216468811035, -77.04291534423828, 40.91783142089844, 9.565933227539062, 0.6902569532394409, 2.0928306579589844, 2.43733549118042, 0.12229517847299576, -0.5669711232185364, 
386, 2911284184, 19.15672492980957, -77.04034423828125, 40.92265319824219, 9.591072082519531, 0.6969621777534485, 2.1105856895446777, 2.3952512741088867, 0.24649859964847565, -0.584388792514801, 
387, 2911292517, 19.147520065307617, -77.03904724121094, 40.931007385253906, 9.57446002960205, 0.685475766658783, 2.0932745933532715, 2.41302752494812, 0.154159277677536, -0.4240436553955078, 
388, 2911300850, 19.141035079956055, -77.03661346435547, 40.93635177612305, 9.57662582397461, 0.6861997246742249, 2.0638134479522705, 2.411951780319214, 0.24585823714733124, -0.5482215285301208, 
389, 2911309183, 19.140241622924805, -77.03526306152344, 40.935874938964844, 9.567887306213379, 0.7055418491363525, 2.053866386413574, 2.3913450241088867, 0.0857052356004715, -0.6535089015960693, 
390, 2911317516, 19.139997482299805, -77.03315734863281, 40.944557189941406, 9.574433326721191, 0.6908739805221558, 2.0948128700256348, 2.492406129837036, 0.14770449697971344, -0.6791870594024658, 
391, 2911325849, 19.144392013549805, -77.03095245361328, 40.940181732177734, 9.550898551940918, 0.6942415237426758, 2.1193103790283203, 2.5574405193328857, 0.14867784082889557, -0.7853068709373474, 
392, 2911334182, 19.1453914642334, -77.02922821044922, 40.93849563598633, 9.555598258972168, 0.7128326296806335, 2.1052165031433105, 2.51143741607666, 0.0995241105556488, -0.6909439563751221, 
393, 2911342515, 19.145009994506836, -77.02782440185547, 40.9383659362793, 9.57416820526123, 0.700620710849762, 2.0795578956604004, 2.477985143661499, 0.09347914904356003, -0.6465545296669006, 
394, 2911350848, 19.14651107788086, -77.02676391601562, 40.93720626831055, 9.56790542602539, 0.7110450863838196, 2.0674471855163574, 2.5462217330932617, 0.019710157066583633, -0.6676607131958008, 
395, 2911359181, 19.149433135986328, -77.0257568359375, 40.9344596862793, 9.577502250671387, 0.7084061503410339, 2.088777780532837, 2.570350170135498, 0.030877960845828056, -0.6991918087005615, 
396, 2911367514, 19.146711349487305, -77.02518463134766, 40.940914154052734, 9.583963394165039, 0.7066064476966858, 2.0870707035064697, 2.5315444469451904, 0.003163357963785529, -0.5452246069908142, 
397, 2911375847, 19.143789291381836, -77.02430725097656, 40.94303894042969, 9.569806098937988, 0.7028841376304626, 2.098627805709839, 2.435875415802002, 0.05029354989528656, -0.5656648278236389, 
398, 2911384180, 19.14109230041504, -77.02393341064453, 40.94087219238281, 9.549854278564453, 0.6931092739105225, 2.089217185974121, 2.5052385330200195, -0.02220754139125347, -0.5425607562065125, 
399, 2911392513, 19.14056396484375, -77.02313995361328, 40.94132995605469, 9.59033203125, 0.6886264085769653, 2.1056652069091797, 2.5323898792266846, 0.028418997302651405, -0.605110764503479, 
400, 2911400846, 19.138988494873047, -77.02305603027344, 40.93768310546875, 9.582340240478516, 0.6950005292892456, 2.1043221950531006, 2.5713236331939697, -0.05481446534395218, -0.5463516116142273, 
401, 2911409179, 19.14078140258789, -77.0233154296875, 40.93556594848633, 9.556500434875488, 0.7144630551338196, 2.0717923641204834, 2.5032668113708496, -0.11779987066984177, -0.6303407549858093, 
402, 2911417512, 19.142066955566406, -77.02294158935547, 40.929569244384766, 9.576879501342773, 0.7020919919013977, 2.0582423210144043, 2.60329008102417, -0.04905126243829727, -0.6251153945922852, 
403, 2911425845, 19.142414093017578, -77.02281951904297, 40.92856979370117, 9.563101768493652, 0.7044647336006165, 2.068535804748535, 2.468507766723633, -0.05768325552344322, -0.6172774434089661, 
404, 2911434178, 19.147245407104492, -77.02151489257812, 40.907508850097656, 9.560644149780273, 0.6974178552627563, 2.1155149936676025, 2.615969181060791, 0.024346332997083664, -0.7483711242675781, 
405, 2911442511, 19.147968292236328, -77.02119445800781, 40.90731430053711, 9.573301315307617, 0.7099116444587708, 2.0818090438842773, 2.600395679473877, -0.035552557557821274, -0.6022931337356567, 
406, 2911450844, 19.148794174194336, -77.02019500732422, 40.907081604003906, 9.579071044921875, 0.6752853393554688, 2.070512294769287, 2.467047929763794, 0.018608741462230682, -0.668480396270752, 
407, 2911459177, 19.150737762451172, -77.02043914794922, 40.90538787841797, 9.558316230773926, 0.7133918404579163, 2.045945882797241, 2.573577642440796, -0.10809206962585449, -0.6213757991790771, 
408, 2911467510, 19.148107528686523, -77.02042388916016, 40.914363861083984, 9.586038589477539, 0.6938199996948242, 2.106661558151245, 2.4974777698516846, -0.05847729742527008, -0.5348508358001709, 
409, 2911475843, 19.146076202392578, -77.02059173583984, 40.91483688354492, 9.566052436828613, 0.700684130191803, 2.1240625381469727, 2.354985237121582, -0.07853323966264725, -0.5686360001564026, 
410, 2911484176, 19.14588165283203, -77.0208969116211, 40.919456481933594, 9.546440124511719, 0.6909187436103821, 2.1038806438446045, 2.56661057472229, -0.11682651937007904, -0.5683543086051941, 
411, 2911492509, 19.15017318725586, -77.02317810058594, 40.91572189331055, 9.573469161987305, 0.7046380043029785, 2.0705902576446533, 2.617659568786621, -0.35690876841545105, -0.5905361771583557, 
412, 2911500842, 19.15431022644043, -77.02363586425781, 40.9119873046875, 9.565268516540527, 0.6892743706703186, 2.0553691387176514, 2.52852201461792, -0.170360267162323, -0.6852832436561584, 
413, 2911509175, 19.16270637512207, -77.02545928955078, 40.903411865234375, 9.51909065246582, 0.6778098344802856, 2.136047124862671, 2.538972854614258, -0.3523238003253937, -0.731670618057251, 
414, 2911517508, 19.183818817138672, -77.02703857421875, 40.87687301635742, 9.565878868103027, 0.6922354102134705, 2.10493540763855, 2.634385824203491, -0.4495042562484741, -1.0582009553909302, 
415, 2911525841, 19.20496368408203, -77.03047943115234, 40.85530090332031, 9.55373477935791, 0.7025841474533081, 2.087045669555664, 2.5528812408447266, -0.6464263796806335, -1.0000309944152832, 
416, 2911534174, 19.229066848754883, -77.03563690185547, 40.83428192138672, 9.548803329467773, 0.68641197681427, 2.073378324508667, 2.5983211994171143, -0.8762630820274353, -1.0071260929107666, 
417, 2911542507, 19.261240005493164, -77.0406723022461, 40.80307388305664, 9.547921180725098, 0.6973345875740051, 2.0927810668945312, 2.7472422122955322, -0.9132499694824219, -1.1808674335479736, 
418, 2911550840, 19.294193267822266, -77.04566955566406, 40.771636962890625, 9.548050880432129, 0.6705039739608765, 2.1135644912719727, 2.6942718029022217, -0.9384800791740417, -1.221747875213623, 
419, 2911559173, 19.33211898803711, -77.05193328857422, 40.73440933227539, 9.579315185546875, 0.6916025876998901, 2.0959274768829346, 2.740018606185913, -1.1051005125045776, -1.2822997570037842, 
420, 2911567506, 19.374467849731445, -77.05768585205078, 40.693763732910156, 9.558340072631836, 0.723412275314331, 2.0504519939422607, 2.6908137798309326, -1.1092756986618042, -1.434576392173767, 
421, 2911575839, 19.415382385253906, -77.06402587890625, 40.65354919433594, 9.590712547302246, 0.7095438838005066, 2.0791642665863037, 2.747549533843994, -1.142932653427124, -1.3529438972473145, 
422, 2911584172, 19.451650619506836, -77.0693359375, 40.62039566040039, 9.60244083404541, 0.721947193145752, 2.0783488750457764, 2.7785682678222656, -0.9971109628677368, -1.2711831331253052, 
423, 2911592505, 19.486310958862305, -77.07373046875, 40.58658218383789, 9.589580535888672, 0.714583158493042, 2.048689603805542, 2.74493670463562, -0.8653513193130493, -1.2672386169433594, 
424, 2911600838, 19.51099967956543, -77.07685089111328, 40.550315856933594, 9.585135459899902, 0.7168743014335632, 2.0694732666015625, 2.690403938293457, -0.6512930989265442, -1.0759003162384033, 
425, 2911609171, 19.540197372436523, -77.08089447021484, 40.52152633666992, 9.58517074584961, 0.7098671793937683, 2.0860490798950195, 2.6721153259277344, -0.7845128178596497, -1.1529991626739502, 
426, 2911617504, 19.566207885742188, -77.08391571044922, 40.500728607177734, 9.61560344696045, 0.7184784412384033, 2.062953233718872, 2.705695867538452, -0.6515492796897888, -1.1108636856079102, 
427, 2911625837, 19.583663940429688, -77.0865478515625, 40.4822998046875, 9.61132526397705, 0.71830153465271, 2.049138069152832, 2.483210563659668, -0.5236830711364746, -0.9468047022819519, 
428, 2911634170, 19.594497680664062, -77.08834838867188, 40.480037689208984, 9.628822326660156, 0.7080801725387573, 2.1088905334472656, 2.4887688159942627, -0.3949715495109558, -0.8122530579566956, 
429, 2911642503, 19.603914260864258, -77.0903091430664, 40.47089767456055, 9.656549453735352, 0.7172645926475525, 2.050079107284546, 2.6035590171813965, -0.3674106001853943, -0.7397134900093079, 
430, 2911650836, 19.60335922241211, -77.08952331542969, 40.46250534057617, 9.613142967224121, 0.7241170406341553, 2.0591094493865967, 2.509273052215576, 0.004994776099920273, -0.6109635829925537, 
431, 2911659169, 19.60157012939453, -77.08924865722656, 40.46421432495117, 9.623025894165039, 0.7203286290168762, 2.0493266582489014, 2.5272157192230225, -0.015009941533207893, -0.5578524470329285, 
432, 2911667502, 19.60074234008789, -77.08708190917969, 40.466739654541016, 9.591776847839355, 0.7227108478546143, 2.052454948425293, 2.482595682144165, 0.15715613961219788, -0.6667385697364807, 
433, 2911675835, 19.59848403930664, -77.08537292480469, 40.46875, 9.616472244262695, 0.7051585912704468, 2.1029086112976074, 2.5064940452575684, 0.149958536028862, -0.6070830225944519, 
434, 2911684168, 19.59418487548828, -77.08235931396484, 40.46134948730469, 9.583937644958496, 0.7144266366958618, 2.0220625400543213, 2.4521148204803467, 0.2840234637260437, -0.6151770949363708, 
435, 2911692501, 19.59116554260254, -77.07813262939453, 40.46345520019531, 9.562827110290527, 0.7348129749298096, 2.049778938293457, 2.423811197280884, 0.43133091926574707, -0.7029315233230591, 
436, 2911700834, 19.5837459564209, -77.07354736328125, 40.47618103027344, 9.586442947387695, 0.7469499111175537, 2.0419700145721436, 2.461258888244629, 0.5041521787643433, -0.6066731214523315, 
437, 2911709167, 19.573871612548828, -77.06964111328125, 40.484954833984375, 9.581511497497559, 0.6924085021018982, 2.0808217525482178, 2.380164384841919, 0.45589500665664673, -0.5227353572845459, 
438, 2911717500, 19.558916091918945, -77.06478881835938, 40.49685287475586, 9.60303020477295, 0.7212215662002563, 2.1022911071777344, 2.440537214279175, 0.5950314402580261, -0.42125168442726135, 
439, 2911725833, 19.539215087890625, -77.05878448486328, 40.51617431640625, 9.5824613571167, 0.724113941192627, 2.0782718658447266, 2.431802749633789, 0.7873943448066711, -0.33721140027046204, 
440, 2911734166, 19.518190383911133, -77.0531234741211, 40.53489303588867, 9.58520221710205, 0.7433692216873169, 2.0770039558410645, 2.367434024810791, 0.7360122799873352, -0.30990663170814514, 
441, 2911742499, 19.493364334106445, -77.04756164550781, 40.55870819091797, 9.56783390045166, 0.7191848158836365, 2.0632283687591553, 2.350630760192871, 0.7830654978752136, -0.2065531611442566, 
442, 2911750832, 19.463909149169922, -77.04302215576172, 40.58451843261719, 9.567185401916504, 0.7013481855392456, 2.106417179107666, 2.3513739109039307, 0.6830676198005676, -0.0476168617606163, 
443, 2911759165, 19.44252586364746, -77.03826141357422, 40.60520553588867, 9.55457878112793, 0.6902022957801819, 2.105531692504883, 2.395737886428833, 0.6616541147232056, -0.2523770332336426, 
444, 2911767498, 19.420251846313477, -77.0344467163086, 40.6251220703125, 9.54489803314209, 0.6936630606651306, 2.0534396171569824, 2.3921263217926025, 0.5410879254341125, -0.19666609168052673, 
445, 2911775831, 19.408472061157227, -77.03081512451172, 40.63554000854492, 9.56806468963623, 0.6809703707695007, 2.082782745361328, 2.3439712524414062, 0.44093629717826843, -0.46784400939941406, 
446, 2911784164, 19.39712905883789, -77.02716064453125, 40.643741607666016, 9.5574312210083, 0.6966677308082581, 2.0919606685638428, 2.3629517555236816, 0.41970202326774597, -0.482034295797348, 
447, 2911792497, 19.390764236450195, -77.02445220947266, 40.64919662475586, 9.528865814208984, 0.6827322840690613, 2.1295104026794434, 2.4141032695770264, 0.2896329462528229, -0.555034875869751, 
448, 2911800830, 19.39085578918457, -77.02232360839844, 40.6552848815918, 9.559104919433594, 0.6941877603530884, 2.088574171066284, 2.5429937839508057, 0.16046036779880524, -0.6848989129066467, 
449, 2911809163, 19.395267486572266, -77.0204849243164, 40.649879455566406, 9.531983375549316, 0.6814484000205994, 2.084696054458618, 2.432724952697754, 0.08991877734661102, -0.7964234948158264, 
450, 2911817496, 19.399919509887695, -77.0194320678711, 40.6451530456543, 9.573163986206055, 0.6908435821533203, 2.115110158920288, 2.5252177715301514, -0.007966026663780212, -0.7620747089385986, 
451, 2911825829, 19.405738830566406, -77.0185546875, 40.63917922973633, 9.568456649780273, 0.7248640656471252, 2.086974859237671, 2.5388190746307373, -0.01882646232843399, -0.7734987139701843, 
452, 2911834162, 19.40995216369629, -77.0184326171875, 40.63351821899414, 9.573790550231934, 0.7180455327033997, 2.126683235168457, 2.432084560394287, -0.11221596598625183, -0.7331050634384155, 
453, 2911842495, 19.41152000427246, -77.01917266845703, 40.631996154785156, 9.569727897644043, 0.6845942735671997, 2.0722451210021973, 2.549346685409546, -0.16516059637069702, -0.5948393940925598, 
454, 2911850828, 19.411813735961914, -77.01982879638672, 40.65021896362305, 9.580368995666504, 0.7304847836494446, 2.083143711090088, 2.498476505279541, -0.15973037481307983, -0.5910484790802002, 
455, 2911859161, 19.422945022583008, -77.02229309082031, 40.63914108276367, 9.529261589050293, 0.6654581427574158, 2.0934665203094482, 2.5780858993530273, -0.4453803300857544, -0.7690417766571045, 
456, 2911867494, 19.442703247070312, -77.02377319335938, 40.62168502807617, 9.567363739013672, 0.7129548192024231, 2.0512754917144775, 2.5500638484954834, -0.42586231231689453, -1.0480577945709229, 
457, 2911875827, 19.462013244628906, -77.02587890625, 40.601993560791016, 9.539050102233887, 0.6652100682258606, 2.105219841003418, 2.551908016204834, -0.48446768522262573, -1.0026437044143677, 
458, 2911884160, 19.480392456054688, -77.02828216552734, 40.585693359375, 9.535215377807617, 0.7273619174957275, 2.077465534210205, 2.642454147338867, -0.5140264630317688, -0.9544119834899902, 
459, 2911892493, 19.51508331298828, -77.03096008300781, 40.55158615112305, 9.530614852905273, 0.7139024138450623, 2.090531587600708, 2.7174530029296875, -0.6730396747589111, -1.3455413579940796, 
460, 2911900826, 19.545886993408203, -77.03449249267578, 40.52812957763672, 9.580347061157227, 0.7015334367752075, 2.0713934898376465, 2.6206562519073486, -0.7636628150939941, -1.2385762929916382, 
461, 2911909159, 19.586820602416992, -77.03837585449219, 40.4873161315918, 9.558981895446777, 0.6956796050071716, 2.093766689300537, 2.6769309043884277, -0.8721646666526794, -1.4664918184280396, 
462, 2911917492, 19.62360191345215, -77.04280853271484, 40.45638656616211, 9.527660369873047, 0.6989442706108093, 2.1021270751953125, 2.696167230606079, -0.9079222083091736, -1.3394196033477783, 
463, 2911925825, 19.672176361083984, -77.0482177734375, 40.40862274169922, 9.53899097442627, 0.7010229229927063, 2.1137425899505615, 2.7838962078094482, -1.1103515625, -1.578631043434143, 
464, 2911934158, 19.72122573852539, -77.05435943603516, 40.35041046142578, 9.527064323425293, 0.6871836185455322, 2.106642484664917, 2.7185025215148926, -1.2176494598388672, -1.5787333250045776, 
465, 2911942491, 19.78875160217285, -77.06282043457031, 40.2840461730957, 9.512313842773438, 0.7172530889511108, 2.0897645950317383, 2.884636402130127, -1.6229177713394165, -1.9219127893447876, 
466, 2911950824, 19.87404441833496, -77.0743179321289, 40.204647064208984, 9.490482330322266, 0.6806304454803467, 2.129091501235962, 2.9277710914611816, -2.144551992416382, -2.2548980712890625, 
467, 2911959157, 19.97911262512207, -77.08708190917969, 40.101444244384766, 9.534996032714844, 0.6778806447982788, 2.13417911529541, 3.0773327350616455, -2.44897723197937, -2.668337345123291, 
468, 2911967490, 20.098590850830078, -77.10118865966797, 39.98615264892578, 9.521158218383789, 0.6749449372291565, 2.115997791290283, 3.087296485900879, -2.7583460807800293, -2.981753349304199, 
469, 2911975823, 20.23477554321289, -77.11555480957031, 39.85127258300781, 9.5597562789917, 0.7162479162216187, 2.0776796340942383, 3.1036126613616943, -2.9290642738342285, -3.3822317123413086, 
470, 2911984156, 20.383108139038086, -77.13130187988281, 39.70594787597656, 9.558255195617676, 0.7058708667755127, 2.0677592754364014, 3.231043577194214, -3.2128961086273193, -3.6064841747283936, 
471, 2911992489, 20.546138763427734, -77.14761352539062, 39.544044494628906, 9.542130470275879, 0.7313408255577087, 2.07841420173645, 3.1610145568847656, -3.411868095397949, -3.9539670944213867, 
472, 2912000822, 20.720727920532227, -77.16342163085938, 39.373741149902344, 9.575284957885742, 0.7205038666725159, 2.0772411823272705, 3.167725086212158, -3.490400552749634, -4.265691757202148, 
473, 2912009155, 20.905792236328125, -77.1796875, 39.18921661376953, 9.590625762939453, 0.7489625215530396, 2.0353894233703613, 3.1499998569488525, -3.640038251876831, -4.489022731781006, 
474, 2912017488, 21.09092140197754, -77.19292449951172, 39.00034713745117, 9.621933937072754, 0.7483376264572144, 2.016112804412842, 3.0876550674438477, -3.333974838256836, -4.62231969833374, 
475, 2912025821, 21.277746200561523, -77.205810546875, 38.81242752075195, 9.593365669250488, 0.7475863695144653, 2.034184455871582, 2.965244770050049, -3.314199924468994, -4.686866760253906, 
476, 2912034154, 21.46225357055664, -77.21997833251953, 38.63201904296875, 9.613785743713379, 0.7602185606956482, 2.0137367248535156, 2.8395814895629883, -3.4641458988189697, -4.593964099884033, 
477, 2912042487, 21.640953063964844, -77.23400115966797, 38.450618743896484, 9.61422061920166, 0.8197907209396362, 2.003981590270996, 2.753031015396118, -3.401211977005005, -4.445427417755127, 
478, 2912050820, 21.800067901611328, -77.24710083007812, 38.29188919067383, 9.585619926452637, 0.7961334586143494, 2.009328842163086, 2.758563280105591, -3.1273696422576904, -3.9806313514709473, 
479, 2912059153, 21.956283569335938, -77.26005554199219, 38.133548736572266, 9.588518142700195, 0.8135699033737183, 1.9913009405136108, 2.7529540061950684, -3.068406105041504, -3.8979485034942627, 
480, 2912067486, 22.10725212097168, -77.2735366821289, 37.98179626464844, 9.595514297485352, 0.82350093126297, 2.021939516067505, 2.688098907470703, -3.098093271255493, -3.756840229034424, 
481, 2912075819, 22.24559783935547, -77.28531646728516, 37.84101867675781, 9.647634506225586, 0.8404962420463562, 1.9796383380889893, 2.6633808612823486, -2.779733657836914, -3.49787974357605, 
482, 2912084152, 22.361270904541016, -77.29634094238281, 37.72793197631836, 9.607872009277344, 0.838596761226654, 1.993904948234558, 2.5934031009674072, -2.4974136352539062, -2.974273920059204, 
483, 2912092485, 22.46841049194336, -77.30557250976562, 37.618099212646484, 9.596429824829102, 0.8227623105049133, 2.008936643600464, 2.5387423038482666, -2.192629814147949, -2.8439486026763916, 
484, 2912100818, 22.563915252685547, -77.31582641601562, 37.511653900146484, 9.601096153259277, 0.8326644897460938, 1.9843419790267944, 2.515151262283325, -2.2144787311553955, -2.5091958045959473, 
485, 2912109151, 22.649438858032227, -77.32561492919922, 37.42366027832031, 9.626726150512695, 0.8577473759651184, 1.9746618270874023, 2.4986557960510254, -2.0412495136260986, -2.2752866744995117, 
486, 2912117484, 22.721023559570312, -77.33602142333984, 37.354740142822266, 9.635643005371094, 0.8581293225288391, 1.976222276687622, 2.521529197692871, -1.9766247272491455, -1.9000126123428345, 
487, 2912125817, 22.78230857849121, -77.3478012084961, 37.291072845458984, 9.597551345825195, 0.8528909683227539, 1.9832042455673218, 2.4415359497070312, -2.019195556640625, -1.5833951234817505, 
488, 2912134150, 22.834800720214844, -77.35954284667969, 37.24846267700195, 9.59505844116211, 0.8214540481567383, 1.9856250286102295, 2.4495787620544434, -1.9317742586135864, -1.3746390342712402, 
489, 2912142483, 22.886144638061523, -77.37086486816406, 37.19402313232422, 9.594539642333984, 0.8267877697944641, 1.9790626764297485, 2.3248889446258545, -1.8729127645492554, -1.3740756511688232, 
490, 2912150816, 22.928401947021484, -77.38286590576172, 37.14914321899414, 9.659098625183105, 0.8141658306121826, 2.0006167888641357, 2.419072151184082, -1.8584918975830078, -1.1066629886627197, 
491, 2912159149, 22.959705352783203, -77.3941421508789, 37.11650466918945, 9.594341278076172, 0.8443712592124939, 1.9679744243621826, 2.469327449798584, -1.6489675045013428, -0.8446549773216248, 
492, 2912167482, 22.985340118408203, -77.40347290039062, 37.09223937988281, 9.642851829528809, 0.837051510810852, 1.9318413734436035, 2.4120283126831055, -1.385960578918457, -0.8202958703041077, 
493, 2912175815, 23.00006103515625, -77.4105224609375, 37.07523727416992, 9.615740776062012, 0.8197574019432068, 1.972038984298706, 2.315001964569092, -1.019395351409912, -0.665201723575592, 
494, 2912184148, 23.024765014648438, -77.41529083251953, 37.04979705810547, 9.615662574768066, 0.7353634238243103, 1.9759762287139893, 2.4836714267730713, -0.8803099989891052, -0.9869164824485779, 
495, 2912192481, 23.046875, -77.4167251586914, 37.025821685791016, 9.726821899414062, 0.8373860120773315, 1.9418411254882812, 2.3842885494232178, -0.4682026505470276, -1.0974162817001343, 
496, 2912200814, 23.06722068786621, -77.41072845458984, 37.0134162902832, 9.708247184753418, 0.7933510541915894, 1.9269546270370483, 2.4432520866394043, 0.35940617322921753, -1.3991775512695312, 
497, 2912209147, 23.08134651184082, -77.39921569824219, 36.99818801879883, 9.673558235168457, 0.8535557985305786, 1.9418461322784424, 2.449450731277466, 1.0489412546157837, -1.496819019317627, 
498, 2912217480, 23.08673858642578, -77.3845443725586, 36.9874382019043, 9.745841979980469, 0.8203126192092896, 1.9375972747802734, 2.360159397125244, 1.4653007984161377, -1.4534798860549927, 
499, 2912225813, 23.072757720947266, -77.36212158203125, 36.99855422973633, 9.776981353759766, 0.8893309235572815, 1.8640633821487427, 2.1635704040527344, 2.5263960361480713, -1.3724364042282104, 
500, 2912234146, 23.016878128051758, -77.33375549316406, 37.05424880981445, 9.634340286254883, 0.8936464786529541, 1.9609752893447876, 2.016749620437622, 3.591768503189087, -0.6492952108383179, 
501, 2912242479, 22.972820281982422, -77.30542755126953, 37.09574508666992, 9.721269607543945, 0.7323976159095764, 2.006483554840088, 2.1115734577178955, 3.494485855102539, -0.9104835391044617, 
502, 2912250812, 22.907453536987305, -77.26470947265625, 37.15463638305664, 9.965559005737305, 0.9224405288696289, 1.7657095193862915, 1.6605709791183472, 5.033350944519043, -1.0495048761367798, 
503, 2912259145, 22.774213790893555, -77.21131896972656, 37.283607482910156, 9.722827911376953, 0.9321867227554321, 1.8755794763565063, 1.6490827798843384, 7.170538425445557, 0.07539549469947815, 
504, 2912267478, 22.610023498535156, -77.1579818725586, 37.44875717163086, 9.55636215209961, 0.8685669898986816, 2.081411361694336, 1.8253604173660278, 7.491230487823486, 0.9213569760322571, 
505, 2912275811, 22.451963424682617, -77.1090316772461, 37.60523223876953, 9.637269973754883, 0.7926541566848755, 2.053056001663208, 1.8784326314926147, 6.965240001678467, 1.0229939222335815, 
506, 2912284144, 22.28268051147461, -77.0583267211914, 37.779449462890625, 9.631707191467285, 0.836443305015564, 2.0067005157470703, 2.035243272781372, 7.277069568634033, 1.2900482416152954, 
507, 2912292477, 22.117416381835938, -77.00823211669922, 37.94558334350586, 9.534124374389648, 0.7889103293418884, 2.0446197986602783, 2.140979051589966, 7.1935930252075195, 1.283568024635315, 
508, 2912300810, 21.961965560913086, -76.95933532714844, 38.10372543334961, 9.735157012939453, 0.75191330909729, 2.0620458126068115, 2.3417177200317383, 6.957096099853516, 1.1596460342407227, 
509, 2912309143, 21.805980682373047, -76.90339660644531, 38.26166915893555, 9.855169296264648, 0.7833325862884521, 1.972484827041626, 2.275632858276367, 7.755492210388184, 0.8894415497779846, 
510, 2912317476, 21.619089126586914, -76.84097290039062, 38.45105743408203, 9.626973152160645, 0.9168959259986877, 2.1005020141601562, 2.095974922180176, 8.769789695739746, 1.3999077081680298, 
511, 2912325809, 21.41288948059082, -76.78600311279297, 38.658878326416016, 9.491071701049805, 0.8748750686645508, 2.168813943862915, 2.0754575729370117, 8.159400939941406, 2.2876460552215576, 
512, 2912334142, 21.202877044677734, -76.74097442626953, 38.86728286743164, 9.413701057434082, 0.8397977948188782, 2.2117068767547607, 1.7554079294204712, 7.042109966278076, 2.7910683155059814, 
513, 2912342475, 21.03092384338379, -76.70369720458984, 39.03273010253906, 9.367744445800781, 0.8621073365211487, 2.23909592628479, 1.2280105352401733, 5.75248384475708, 2.0547101497650146, 
514, 2912350808, 20.900997161865234, -76.6858139038086, 39.16111755371094, 9.340943336486816, 0.7873227596282959, 2.2730557918548584, 0.9997109174728394, 3.1119887828826904, 1.7369909286499023, 
515, 2912359141, 20.850252151489258, -76.6755142211914, 39.196617126464844, 9.386604309082031, 0.7302480340003967, 2.2185544967651367, 0.5959792137145996, 1.4415562152862549, -0.11075595021247864, 
516, 2912367474, 20.864633560180664, -76.67478942871094, 39.16868209838867, 9.438118934631348, 0.6318821310997009, 2.213855028152466, 0.4988243579864502, -0.31766772270202637, -1.4597039222717285, 
517, 2912375807, 20.94730567932129, -76.67955780029297, 39.066097259521484, 9.504189491271973, 0.7117322087287903, 2.1770224571228027, 0.4766041040420532, -1.61455500125885, -3.0328152179718018, 
518, 2912384140, 21.08626937866211, -76.69271087646484, 38.90631103515625, 9.694214820861816, 0.9153711795806885, 2.1099534034729004, 0.48614534735679626, -3.1398696899414062, -4.169946193695068, 
519, 2912392473, 21.24819564819336, -76.72296905517578, 38.71767044067383, 9.83484172821045, 0.8225262761116028, 2.148571252822876, -0.06272926181554794, -5.33134651184082, -4.128860950469971, 
520, 2912400806, 21.69499397277832, -76.7515640258789, 38.21061706542969, 10.961136817932129, 2.1960418224334717, 2.0097079277038574, -3.1787269115448, -8.394169807434082, -12.355694770812988, 
521, 2912409139, 22.398605346679688, -76.65291595458984, 37.43135452270508, 16.26094627380371, 0.8243610858917236, 1.1606910228729248, -4.028019905090332, 2.8341269493103027, -24.96738624572754, 
522, 2912417472, 22.382749557495117, -76.3674087524414, 37.38467025756836, 20.51913070678711, 1.0104378461837769, 0.9031236171722412, -4.901109218597412, 31.089502334594727, -14.869743347167969, 
523, 2912425805, 21.73781394958496, -75.91152954101562, 38.00613021850586, 12.417189598083496, 1.8094762563705444, 1.6760046482086182, -2.448446035385132, 57.34934997558594, -4.578147888183594, 
524, 2912434138, 21.125301361083984, -75.45591735839844, 38.58777618408203, 11.149707794189453, 0.6710081100463867, 2.018223762512207, -4.332020282745361, 57.03762435913086, -4.745383262634277, 
525, 2912442471, 20.478525161743164, -74.9574966430664, 39.207828521728516, 12.882287979125977, 0.8883101344108582, 1.8002090454101562, -3.1362948417663574, 62.590843200683594, -4.066427707672119, 
526, 2912450804, 19.828121185302734, -74.39237976074219, 39.825714111328125, 12.27102279663086, 0.8795104026794434, 1.939546823501587, -3.623687267303467, 70.38317108154297, -5.465538024902344, 
527, 2912459137, 19.161211013793945, -73.79964447021484, 40.47043228149414, 11.546706199645996, 1.0019294023513794, 2.1563432216644287, -3.0859668254852295, 74.06182861328125, -4.339738368988037, 
528, 2912467470, 18.4908390045166, -73.17237854003906, 41.10637664794922, 12.305644035339355, 0.8791108727455139, 2.07818865776062, -3.763237476348877, 78.27350616455078, -4.075835704803467, 
529, 2912475803, 17.81785011291504, -72.49341583251953, 41.757999420166016, 12.06202220916748, 0.8024661540985107, 2.2182247638702393, -3.510453701019287, 84.54502868652344, -4.041234970092773, 
530, 2912484136, 17.1540584564209, -71.78191375732422, 42.39829635620117, 11.121369361877441, 0.8312473297119141, 2.4871177673339844, -3.291707754135132, 88.51960754394531, -3.558046340942383, 
531, 2912492469, 16.522233963012695, -71.04730987548828, 43.015220642089844, 10.97274112701416, 0.6185840964317322, 2.4301724433898926, -3.1073882579803467, 91.1459732055664, -3.538325071334839, 
532, 2912500802, 15.96252155303955, -70.28074645996094, 43.55546569824219, 10.589423179626465, 0.8427125215530396, 2.6660358905792236, -3.2478079795837402, 94.283203125, -5.644883632659912, 
533, 2912509135, 15.428731918334961, -69.49427032470703, 44.06477355957031, 10.576987266540527, 0.9762565493583679, 2.715298891067505, -4.122235298156738, 96.48088073730469, -5.88645601272583, 
534, 2912517468, 14.910772323608398, -68.68531036376953, 44.55042266845703, 10.60246467590332, 0.9389317035675049, 2.595404624938965, -5.189590930938721, 99.08258819580078, -5.931616306304932, 
535, 2912525801, 14.441774368286133, -67.84410858154297, 44.979923248291016, 10.3379545211792, 0.8626337647438049, 2.738537073135376, -5.861949443817139, 102.42620086669922, -7.6994547843933105, 
536, 2912534134, 13.989517211914062, -66.98309326171875, 45.393310546875, 10.054315567016602, 0.9246427416801453, 2.9935359954833984, -5.932391166687012, 104.77864074707031, -7.499715805053711, 
537, 2912542467, 13.601255416870117, -66.1053466796875, 45.74099349975586, 8.888981819152832, 0.2537744641304016, 3.059520721435547, -5.775402545928955, 106.19102478027344, -9.574646949768066, 
538, 2912550800, 13.278890609741211, -65.23828125, 46.03264617919922, 8.3313627243042, 0.3604058027267456, 3.2665133476257324, -4.256768703460693, 104.50163269042969, -10.75859546661377, 
539, 2912559133, 13.014077186584473, -64.3797378540039, 46.268978118896484, 8.315077781677246, 0.46865314245224, 3.460977792739868, -3.5760631561279297, 103.00882720947266, -12.26511001586914, 
540, 2912567466, 12.776091575622559, -63.540950775146484, 46.486167907714844, 7.582024097442627, 0.5349692106246948, 3.6335718631744385, -2.598536252975464, 100.62557220458984, -11.908805847167969, 
541, 2912575799, 12.562186241149902, -62.73200225830078, 46.685420989990234, 7.441995143890381, 0.8203645944595337, 3.825979709625244, -1.797263503074646, 97.01943969726562, -11.33582878112793, 
542, 2912584132, 12.363903045654297, -61.94873046875, 46.87068557739258, 7.253808975219727, 1.0727825164794922, 4.066196918487549, -1.5641968250274658, 93.95476531982422, -10.80924129486084, 
543, 2912592465, 12.170695304870605, -61.20211410522461, 47.04607391357422, 6.383988380432129, 1.3173654079437256, 4.197619915008545, -2.134807825088501, 89.61499786376953, -9.834117889404297, 
544, 2912600798, 11.963123321533203, -60.502525329589844, 47.235076904296875, 6.12186861038208, 1.281464695930481, 4.403252601623535, -2.560748338699341, 84.35684967041016, -7.347592353820801, 
545, 2912609131, 11.740727424621582, -59.85505294799805, 47.43910598754883, 5.552530288696289, 1.302721619606018, 4.509897708892822, -2.907820701599121, 78.47745513916016, -4.62833833694458, 
546, 2912617464, 11.504188537597656, -59.267677307128906, 47.656795501708984, 5.70632266998291, 1.3703662157058716, 4.7511701583862305, -3.3085286617279053, 71.66642761230469, -1.8321946859359741, 
547, 2912625797, 11.243871688842773, -58.73255157470703, 47.898284912109375, 5.566604137420654, 1.5131462812423706, 4.830332279205322, -3.8591833114624023, 65.83352661132812, 1.3831098079681396, 
548, 2912634130, 10.9719877243042, -58.253658294677734, 48.14881896972656, 5.547062873840332, 1.4457786083221436, 4.895963668823242, -4.44856595993042, 59.363338470458984, 3.7514595985412598, 
549, 2912642463, 10.697118759155273, -57.814491271972656, 48.39307403564453, 5.760031223297119, 1.4985967874526978, 4.941132068634033, -5.580562591552734, 54.613651275634766, 4.747905731201172, 
550, 2912650796, 10.434340476989746, -57.41477584838867, 48.621700286865234, 5.585572242736816, 0.9952926635742188, 5.055971622467041, -5.821744441986084, 49.78950500488281, 5.055531024932861, 
551, 2912659129, 10.194480895996094, -57.056724548339844, 48.82646942138672, 5.400244235992432, 0.6133288741111755, 5.142945766448975, -5.581121444702148, 44.589149475097656, 4.804560661315918, 
552, 2912667462, 10.000967025756836, -56.736602783203125, 48.98400115966797, 5.784266471862793, 0.318332701921463, 5.188195705413818, -4.84665584564209, 39.56788635253906, 2.837484836578369, 
553, 2912675795, 9.848057746887207, -56.45010757446289, 49.105018615722656, 5.502182483673096, 0.29383525252342224, 5.298835754394531, -3.691707134246826, 35.1751594543457, 1.3626405000686646, 
554, 2912684128, 9.741661071777344, -56.20611572265625, 49.17990493774414, 5.143617153167725, 0.22812384366989136, 5.394523620605469, -2.742108106613159, 29.636703491210938, -0.663255512714386, 
555, 2912692461, 9.66666316986084, -56.00034713745117, 49.22256851196289, 6.5443620681762695, 0.23815026879310608, 5.360290050506592, -2.211611032485962, 24.75615692138672, -1.9349514245986938, 
556, 2912700794, 9.619828224182129, -55.80661392211914, 49.2354736328125, 7.391761779785156, 0.5846046805381775, 5.381282806396484, -1.7990163564682007, 22.99555778503418, -3.6323816776275635, 
557, 2912709127, 9.597085952758789, -55.620906829833984, 49.215904235839844, 7.398064613342285, 0.6938999891281128, 5.523735523223877, -2.13107967376709, 21.686006546020508, -5.6106719970703125, 
558, 2912717460, 9.593742370605469, -55.44450378417969, 49.17157745361328, 7.7574944496154785, 0.825130820274353, 5.626794338226318, -2.2367379665374756, 20.30096435546875, -7.087794303894043, 
559, 2912725793, 9.581546783447266, -55.27790832519531, 49.1414794921875, 7.474991798400879, 0.8721511960029602, 5.607844829559326, -1.8964786529541016, 19.306697845458984, -5.942043781280518, 
560, 2912734126, 9.564835548400879, -55.12859344482422, 49.1201171875, 7.557066440582275, 1.0520075559616089, 5.75347900390625, -1.569615125656128, 17.346670150756836, -5.016242027282715, 
561, 2912742459, 9.533202171325684, -54.9930305480957, 49.114280700683594, 7.92889404296875, 1.1892083883285522, 5.677480697631836, -1.8300098180770874, 15.910429000854492, -3.6812026500701904, 
562, 2912750792, 9.471427917480469, -54.8638916015625, 49.14112854003906, 8.513813018798828, 1.3998651504516602, 5.753905296325684, -2.2275166511535645, 15.517913818359375, -1.324256181716919, 
563, 2912759125, 9.377864837646484, -54.73714828491211, 49.200965881347656, 8.006710052490234, 1.410216212272644, 5.7469048500061035, -2.8209986686706543, 15.616450309753418, 1.0065243244171143, 
564, 2912767458, 9.26984977722168, -54.61998748779297, 49.2746467590332, 8.270658493041992, 1.219791054725647, 5.755540370941162, -3.203521728515625, 14.629919052124023, 2.1766083240509033, 
565, 2912775791, 9.14456844329834, -54.506431579589844, 49.371917724609375, 7.992913722991943, 1.0235795974731445, 5.707529067993164, -2.984135866165161, 14.469367980957031, 3.9145607948303223, 
566, 2912784124, 9.008781433105469, -54.401920318603516, 49.48255920410156, 7.909336566925049, 1.2538120746612549, 5.717373847961426, -2.9498379230499268, 13.526071548461914, 5.046504020690918, 
567, 2912792457, 8.856684684753418, -54.30006408691406, 49.60911560058594, 8.385354042053223, 1.1393301486968994, 5.672852516174316, -3.3699119091033936, 13.384478569030762, 6.26141357421875, 
568, 2912800790, 8.694578170776367, -54.18669509887695, 49.74710464477539, 8.696288108825684, 1.1323492527008057, 5.709721088409424, -3.478592872619629, 14.845202445983887, 6.890395164489746, 
569, 2912809123, 8.535385131835938, -54.06999969482422, 49.88282012939453, 8.069985389709473, 0.6660471558570862, 5.747930526733398, -3.3672993183135986, 15.209774017333984, 6.751567840576172, 
570, 2912817456, 8.38917064666748, -53.95481872558594, 50.00792694091797, 7.954645156860352, 0.549816906452179, 5.779785633087158, -2.8533239364624023, 14.898945808410645, 6.102016448974609, 
571, 2912825789, 8.255308151245117, -53.84123611450195, 50.12326431274414, 7.939201831817627, 0.5896044969558716, 5.774819374084473, -2.341038942337036, 14.603227615356445, 5.509610176086426, 
572, 2912834122, 8.137531280517578, -53.73068618774414, 50.22346496582031, 7.931325912475586, 0.5294729471206665, 5.805262088775635, -1.893174409866333, 14.067099571228027, 4.545234680175781, 
573, 2912842455, 8.03699779510498, -53.62183380126953, 50.30908203125, 7.720033168792725, 0.5376803278923035, 5.817478179931641, -1.2510762214660645, 13.720561981201172, 3.6006064414978027, 
574, 2912850788, 7.946844100952148, -53.52082443237305, 50.38655090332031, 7.478766441345215, 0.5757929682731628, 5.879756450653076, -0.7947073578834534, 12.697299003601074, 3.18801212310791, 
575, 2912859121, 7.862235069274902, -53.43377685546875, 50.46078109741211, 7.214763164520264, 0.7202284932136536, 5.916078090667725, -0.4569067358970642, 11.011214256286621, 3.227227210998535, 
576, 2912867454, 7.7841362953186035, -53.36359786987305, 50.52652359008789, 7.046515464782715, 0.6850608587265015, 5.8999176025390625, -0.4908200204372406, 8.911590576171875, 2.926003932952881, 
577, 2912875787, 7.712789535522461, -53.30747604370117, 50.58735275268555, 7.162342548370361, 0.6606645584106445, 5.904019832611084, -0.1701553910970688, 7.192824363708496, 2.825289011001587, 
578, 2912884120, 7.6539998054504395, -53.26577377319336, 50.636226654052734, 7.124274730682373, 0.6557671427726746, 5.896840572357178, 0.19260622560977936, 5.353413105010986, 2.212724208831787, 
579, 2912892453, 7.605831623077393, -53.237030029296875, 50.67717361450195, 7.097810745239258, 0.6481307744979858, 5.93570613861084, 0.6944403648376465, 3.7426884174346924, 1.8677259683609009, 
580, 2912900786, 7.5746917724609375, -53.2238883972168, 50.70267868041992, 7.223640441894531, 0.5323716402053833, 5.896896839141846, 1.2663806676864624, 1.729434847831726, 1.0214061737060547, 
581, 2912909119, 7.541234970092773, -53.22212600708008, 50.73580551147461, 7.527531147003174, 0.8082935214042664, 5.929928779602051, 1.7078931331634521, 0.4558694064617157, 1.7438809871673584, 
582, 2912917452, 7.50978946685791, -53.230224609375, 50.765689849853516, 7.396656513214111, 0.8855897784233093, 5.974603176116943, 1.6418085098266602, -0.7627919316291809, 1.6620436906814575, 
583, 2912925785, 7.477744102478027, -53.25252151489258, 50.7972412109375, 7.212194442749023, 0.7090328931808472, 5.9832587242126465, 1.727027177810669, -2.423388719558716, 2.009629011154175, 
584, 2912934118, 7.450878620147705, -53.2943229675293, 50.82591247558594, 6.932732105255127, 0.6431929469108582, 5.9940185546875, 2.079658269882202, -4.785072326660156, 2.100405693054199, 
585, 2912942451, 7.430654048919678, -53.35621643066406, 50.85054016113281, 6.948473930358887, 0.5931056141853333, 5.94367790222168, 2.480316638946533, -7.204465866088867, 2.1252262592315674, 
586, 2912950784, 7.424115180969238, -53.434757232666016, 50.862457275390625, 7.051904201507568, 0.583498477935791, 5.900378704071045, 2.913273572921753, -9.316205024719238, 1.478210210800171, 
587, 2912959117, 7.432931900024414, -53.52933883666992, 50.860591888427734, 7.178518295288086, 0.3934749662876129, 5.93001127243042, 3.4173104763031006, -11.337425231933594, 0.7495622634887695, 
588, 2912967450, 7.452455997467041, -53.63467025756836, 50.84952163696289, 7.533477306365967, 0.5079916715621948, 5.83045768737793, 3.8232710361480713, -12.719339370727539, 0.26412123441696167, 
589, 2912975783, 7.480886936187744, -53.74412155151367, 50.82842254638672, 7.798984050750732, 0.5407350659370422, 5.766674995422363, 3.9109487533569336, -13.28329086303711, -0.3668215572834015, 
590, 2912984116, 7.517210006713867, -53.85630798339844, 50.79938507080078, 7.777710914611816, 0.6040931940078735, 5.786689758300781, 4.0889668464660645, -13.699800491333008, -0.88182133436203, 
591, 2912992449, 7.557716369628906, -53.972530364990234, 50.76850128173828, 7.943490028381348, 0.7187819480895996, 5.77673864364624, 4.404125213623047, -14.180788040161133, -0.922240674495697, 
592, 2913000782, 7.596841335296631, -54.0916748046875, 50.73788070678711, 7.797031879425049, 0.8352639675140381, 5.8251848220825195, 4.2633233070373535, -14.544251441955566, -0.8465762138366699, 
593, 2913009115, 7.630383491516113, -54.21924591064453, 50.7147102355957, 7.742184638977051, 0.8361157774925232, 5.7523088455200195, 4.310761451721191, -15.454325675964355, -0.17240944504737854, 
594, 2913017448, 7.655547618865967, -54.35267639160156, 50.70051956176758, 7.865713596343994, 0.8815634250640869, 5.722837924957275, 4.182614326477051, -16.084104537963867, 0.5480295419692993, 
595, 2913025781, 7.67661190032959, -54.490333557128906, 50.68955993652344, 7.8115692138671875, 0.7824956774711609, 5.707794666290283, 3.994988441467285, -16.542110443115234, 0.8589350581169128, 
596, 2913034114, 7.700577259063721, -54.63372039794922, 50.67509841918945, 7.717489719390869, 0.6939317584037781, 5.720321178436279, 3.996243953704834, -17.271501541137695, 0.7056338787078857, 
597, 2913042447, 7.725723743438721, -54.78647232055664, 50.66434097290039, 7.778557777404785, 0.6883029341697693, 5.665642261505127, 4.5045342445373535, -18.331090927124023, 1.1353641748428345, 
598, 2913050780, 7.757426738739014, -54.94303512573242, 50.64409637451172, 7.945094585418701, 0.7349374294281006, 5.622391700744629, 4.364039421081543, -18.890810012817383, 0.5569689273834229, 
599, 2913059113, 7.7819743156433105, -55.10215377807617, 50.63615417480469, 7.754188537597656, 0.7550314664840698, 5.632077693939209, 4.702070236206055, -19.05976104736328, 1.451264500617981, 
600, 2913067446, 7.817914962768555, -55.27193069458008, 50.61249542236328, 7.578674793243408, 0.5875083804130554, 5.612381458282471, 4.526561737060547, -20.491907119750977, 0.5678037405014038, 
601, 2913075779, 7.861359119415283, -55.451416015625, 50.58478546142578, 7.730652332305908, 0.5005851984024048, 5.580031871795654, 5.016921520233154, -21.662479400634766, 0.478666216135025, 
602, 2913084112, 7.912829875946045, -55.63660430908203, 50.548851013183594, 7.729338645935059, 0.6673044562339783, 5.559056758880615, 5.162026405334473, -22.43541717529297, 0.03656433895230293, 
603, 2913092445, 7.965417861938477, -55.83097457885742, 50.51337814331055, 7.795715808868408, 0.8545460104942322, 5.511013031005859, 5.332207679748535, -23.499408721923828, 0.2616879642009735, 
604, 2913100778, 8.018077850341797, -56.030426025390625, 50.47603225708008, 7.954251766204834, 0.9184339642524719, 5.494309902191162, 5.143712043762207, -24.141122817993164, 0.2385583072900772, 
605, 2913109111, 8.075403213500977, -56.237117767333984, 50.43280792236328, 7.703514099121094, 0.7976362109184265, 5.444484233856201, 5.110720634460449, -25.030906677246094, 0.021349474787712097, 
606, 2913117444, 8.133552551269531, -56.45568084716797, 50.39168930053711, 7.5784687995910645, 0.6497600078582764, 5.468695163726807, 5.417914390563965, -26.436931610107422, 0.40110641717910767, 
607, 2913125777, 8.202651023864746, -56.6883430480957, 50.34112548828125, 7.491059303283691, 0.7323423027992249, 5.392085075378418, 5.7645769119262695, -28.179237365722656, 0.06891515105962753, 
608, 2913134110, 8.28416633605957, -56.93464660644531, 50.27549743652344, 7.4422101974487305, 0.6494256854057312, 5.358975410461426, 5.737273216247559, -29.95920181274414, -0.6194039583206177, 
609, 2913142443, 8.381399154663086, -57.1970100402832, 50.19684982299805, 7.264300346374512, 0.5666836500167847, 5.337045192718506, 6.2865705490112305, -31.958728790283203, -1.1000555753707886, 
610, 2913150776, 8.49581241607666, -57.48134231567383, 50.1040153503418, 7.195812702178955, 0.49837422370910645, 5.254978179931641, 6.901750564575195, -34.722434997558594, -1.5321171283721924, 
611, 2913159109, 8.631998062133789, -57.78592300415039, 49.99351501464844, 7.14644718170166, 0.44969794154167175, 5.238471984863281, 7.683268070220947, -37.26686096191406, -2.164175033569336, 
