PacketCounter,SampleTimeFine,Euler_X,Euler_Y,Euler_Z,Acc_X,Acc_Y,Acc_Z,Gyr_X,Gyr_Y,Gyr_Z,
0, 2978585540, 20.885427474975586, -87.51242065429688, -165.91075134277344, 0, 0, 0, 0, 0, 0, 
1, 2978593873, 20.819683074951172, -87.51604461669922, -165.8404083251953, 9.832265853881836, -0.10526006668806076, 0.21148642897605896, 1.2371289730072021, -2.2196013927459717, 0.6333246827125549, 
2, 2978602206, 20.810535430908203, -87.5157241821289, -165.82711791992188, 9.804668426513672, -0.09943908452987671, 0.23656633496284485, 1.0656673908233643, -2.1930651664733887, 0.5858103632926941, 
3, 2978610539, 20.726240158081055, -87.51793670654297, -165.73895263671875, 9.778972625732422, -0.08605895191431046, 0.22271758317947388, 1.1416393518447876, -2.0659162998199463, 0.6762543320655823, 
4, 2978618872, 20.685237884521484, -87.5195083618164, -165.69309997558594, 9.814436912536621, -0.07260618358850479, 0.2439691573381424, 1.1548306941986084, -2.32433819770813, 0.8143661618232727, 
5, 2978627205, 20.613191604614258, -87.5232162475586, -165.61782836914062, 9.809286117553711, -0.09147953987121582, 0.27005714178085327, 1.0664103031158447, -2.242372751235962, 0.6675710678100586, 
6, 2978635538, 20.599639892578125, -87.524169921875, -165.6002197265625, 9.79210376739502, -0.08407454937696457, 0.2577964961528778, 1.061005711555481, -2.3016695976257324, 0.6499228477478027, 
7, 2978643871, 20.520538330078125, -87.52701568603516, -165.51809692382812, 9.771709442138672, -0.08798681944608688, 0.1987561285495758, 1.0324459075927734, -2.1858420372009277, 0.685936450958252, 
8, 2978652204, 20.528120040893555, -87.52693939208984, -165.52191162109375, 9.80022144317627, -0.1402742564678192, 0.21010853350162506, 1.0320104360580444, -2.2432947158813477, 0.5086346864700317, 
9, 2978660537, 20.504798889160156, -87.53042602539062, -165.49583435058594, 9.805455207824707, -0.08894164860248566, 0.222425639629364, 0.9966883063316345, -2.3223915100097656, 0.4253115952014923, 
10, 2978668870, 20.542034149169922, -87.5291519165039, -165.52960205078125, 9.798901557922363, -0.08405476063489914, 0.23624035716056824, 1.0018622875213623, -2.1735472679138184, 0.3178854286670685, 
11, 2978677203, 20.53302764892578, -87.53176879882812, -165.51806640625, 9.835152626037598, -0.0918613001704216, 0.25177693367004395, 0.993025541305542, -2.233125925064087, 0.3122759461402893, 
12, 2978685536, 20.572341918945312, -87.5323257446289, -165.55392456054688, 9.857827186584473, -0.09830755740404129, 0.21595224738121033, 0.9905921816825867, -2.3513355255126953, 0.37303295731544495, 
13, 2978693869, 20.555580139160156, -87.53558349609375, -165.53427124023438, 9.792667388916016, -0.07491859048604965, 0.22270727157592773, 1.0303198099136353, -2.3068950176239014, 0.3844824731349945, 
14, 2978702202, 20.59347915649414, -87.536376953125, -165.5678253173828, 9.831361770629883, -0.08260738849639893, 0.21806618571281433, 1.102218747138977, -2.3875539302825928, 0.3994411528110504, 
15, 2978710535, 20.566761016845703, -87.53947448730469, -165.53797912597656, 9.821015357971191, -0.0759553611278534, 0.2459597885608673, 1.0629523992538452, -2.27234148979187, 0.42838531732559204, 
16, 2978718868, 20.583194732666016, -87.54090881347656, -165.55018615722656, 9.800540924072266, -0.09354142099618912, 0.24651627242565155, 1.0889251232147217, -2.399592876434326, 0.5223894715309143, 
17, 2978727201, 20.529600143432617, -87.54497528076172, -165.49269104003906, 9.790542602539062, -0.08491414040327072, 0.20864447951316833, 1.1450459957122803, -2.3445990085601807, 0.6048161387443542, 
18, 2978735534, 20.515480041503906, -87.54584503173828, -165.47352600097656, 9.811176300048828, -0.09600947797298431, 0.24157553911209106, 1.1817255020141602, -2.3019511699676514, 0.6570435166358948, 
19, 2978743867, 20.446805953979492, -87.55079650878906, -165.40098571777344, 9.8052978515625, -0.0983755961060524, 0.25989705324172974, 1.145148515701294, -2.399003744125366, 0.708784282207489, 
20, 2978752200, 20.44913673400879, -87.55159759521484, -165.3996124267578, 9.822205543518066, -0.0965016633272171, 0.22002123296260834, 1.0190496444702148, -2.300901412963867, 0.5585312843322754, 
21, 2978760533, 20.446990966796875, -87.55599975585938, -165.39405822753906, 9.784530639648438, -0.08626198023557663, 0.21478192508220673, 1.106291651725769, -2.47725510597229, 0.36954939365386963, 
22, 2978768866, 20.488330841064453, -87.5577621459961, -165.4310760498047, 9.810342788696289, -0.08530540764331818, 0.2513716518878937, 1.087260127067566, -2.478484630584717, 0.4153476357460022, 
23, 2978777199, 20.471546173095703, -87.56121063232422, -165.4110107421875, 9.800509452819824, -0.08415829390287399, 0.2565513551235199, 1.0837255716323853, -2.379741907119751, 0.4120177924633026, 
24, 2978785532, 20.485698699951172, -87.56233978271484, -165.4206085205078, 9.825456619262695, -0.08868083357810974, 0.25725817680358887, 1.1209430694580078, -2.346315383911133, 0.5160372257232666, 
25, 2978793865, 20.455297470092773, -87.56651306152344, -165.38619995117188, 9.797141075134277, -0.09531831741333008, 0.2255919724702835, 1.160414457321167, -2.402230978012085, 0.4982352554798126, 
26, 2978802198, 20.477890014648438, -87.56771850585938, -165.40475463867188, 9.837918281555176, -0.10646703839302063, 0.2120564877986908, 1.0669225454330444, -2.385146379470825, 0.48143234848976135, 
27, 2978810531, 20.42416763305664, -87.57158660888672, -165.34657287597656, 9.790181159973145, -0.0849546417593956, 0.22916465997695923, 1.221606969833374, -2.3490560054779053, 0.6080948114395142, 
28, 2978818864, 20.397918701171875, -87.5728759765625, -165.31564331054688, 9.830942153930664, -0.09634196013212204, 0.21571943163871765, 1.1359783411026, -2.304025888442993, 0.72054123878479, 
29, 2978827197, 20.343175888061523, -87.57675170898438, -165.25634765625, 9.81490707397461, -0.060223571956157684, 0.21640907227993011, 1.2273445129394531, -2.3065617084503174, 0.595723032951355, 
30, 2978835530, 20.317907333374023, -87.57675170898438, -165.2254638671875, 9.809709548950195, -0.09644433856010437, 0.2470945566892624, 1.244275450706482, -2.1874043941497803, 0.6759212613105774, 
31, 2978843863, 20.250078201293945, -87.57942199707031, -165.1530303955078, 9.81697940826416, -0.08742078393697739, 0.26162123680114746, 1.2268835306167603, -2.1501870155334473, 0.6083253026008606, 
32, 2978852196, 20.240489959716797, -87.57868957519531, -165.13821411132812, 9.787714958190918, -0.09072693437337875, 0.23737473785877228, 1.1962487697601318, -2.110433578491211, 0.559991180896759, 
33, 2978860529, 20.207473754882812, -87.58216094970703, -165.10174560546875, 9.82801342010498, -0.1037389263510704, 0.2260199785232544, 1.1112607717514038, -2.329153537750244, 0.4804590344429016, 
34, 2978868862, 20.212852478027344, -87.58135986328125, -165.10287475585938, 9.802794456481934, -0.0837581679224968, 0.2771868407726288, 1.0777831077575684, -2.1598949432373047, 0.4927026331424713, 
35, 2978877195, 20.187515258789062, -87.58524322509766, -165.07447814941406, 9.790392875671387, -0.09136384725570679, 0.24504846334457397, 1.0529371500015259, -2.3363513946533203, 0.43696603178977966, 
36, 2978885528, 20.1986141204834, -87.58589172363281, -165.0809783935547, 9.822236061096191, -0.08407589793205261, 0.23890721797943115, 1.1290626525878906, -2.318728446960449, 0.5219540596008301, 
37, 2978893861, 20.183691024780273, -87.58840942382812, -165.0629119873047, 9.776562690734863, -0.0970163345336914, 0.2059537023305893, 1.0416412353515625, -2.2558202743530273, 0.3516194224357605, 
38, 2978902194, 20.210601806640625, -87.58832550048828, -165.08677673339844, 9.782438278198242, -0.09833082556724548, 0.22968938946723938, 0.9388770461082458, -2.268319606781006, 0.40994301438331604, 
39, 2978910527, 20.225051879882812, -87.59019470214844, -165.0980987548828, 9.82221794128418, -0.09615607559680939, 0.23699554800987244, 1.0623632669448853, -2.20774245262146, 0.1763412058353424, 
40, 2978918860, 20.273853302001953, -87.5898666381836, -165.14321899414062, 9.820284843444824, -0.08323171734809875, 0.27326616644859314, 1.018844723701477, -2.2777204513549805, 0.2996993660926819, 
41, 2978927193, 20.273731231689453, -87.5928726196289, -165.1401824951172, 9.809398651123047, -0.09513366222381592, 0.2367551177740097, 1.0360829830169678, -2.3180112838745117, 0.2937312424182892, 
42, 2978935526, 20.33363151550293, -87.5931167602539, -165.19647216796875, 9.824294090270996, -0.0923897922039032, 0.21018250286579132, 1.0021440982818604, -2.3842499256134033, 0.2800788879394531, 
43, 2978943859, 20.30880355834961, -87.59661865234375, -165.16860961914062, 9.842366218566895, -0.08471886813640594, 0.23834502696990967, 1.0528090000152588, -2.319343328475952, 0.428718239068985, 
44, 2978952192, 20.32946014404297, -87.5975112915039, -165.18515014648438, 9.807516098022461, -0.09139181673526764, 0.24288633465766907, 1.0681264400482178, -2.356099843978882, 0.4823032021522522, 
45, 2978960525, 20.286102294921875, -87.60240936279297, -165.138427734375, 9.83576488494873, -0.08110251277685165, 0.21446821093559265, 1.0951238870620728, -2.4346587657928467, 0.5723884701728821, 
46, 2978968858, 20.27589225769043, -87.60387420654297, -165.1243896484375, 9.8233003616333, -0.08925680071115494, 0.23801837861537933, 1.0313187837600708, -2.3718526363372803, 0.6506144404411316, 
47, 2978977191, 20.21306037902832, -87.6088638305664, -165.0580596923828, 9.79123592376709, -0.09640401601791382, 0.26932016015052795, 1.1065222024917603, -2.4314825534820557, 0.6764079332351685, 
48, 2978985524, 20.2273006439209, -87.61173248291016, -165.0670166015625, 9.803037643432617, -0.11166635155677795, 0.22024701535701752, 1.1978111267089844, -2.57912278175354, 0.6052259802818298, 
49, 2978993857, 20.189943313598633, -87.61640930175781, -165.02584838867188, 9.805959701538086, -0.09469206631183624, 0.22411270439624786, 1.1402559280395508, -2.4361441135406494, 0.540242612361908, 
50, 2979002190, 20.20810890197754, -87.61665344238281, -165.03982543945312, 9.816587448120117, -0.08499803394079208, 0.2994566559791565, 1.0829827785491943, -2.265988826751709, 0.4633999466896057, 
51, 2979010523, 20.163955688476562, -87.62002563476562, -164.9911346435547, 9.777642250061035, -0.08433760702610016, 0.226286381483078, 1.2191479206085205, -2.3128886222839355, 0.5338647365570068, 
52, 2979018856, 20.210433959960938, -87.62010955810547, -165.03330993652344, 9.830735206604004, -0.0954132229089737, 0.18190504610538483, 1.093894362449646, -2.312991142272949, 0.3305901288986206, 
53, 2979027189, 20.200414657592773, -87.62224578857422, -165.02024841308594, 9.795519828796387, -0.09837770462036133, 0.22563856840133667, 1.0386956930160522, -2.226773500442505, 0.31470930576324463, 
54, 2979035522, 20.254796981811523, -87.62224578857422, -165.07057189941406, 9.819830894470215, -0.09635791182518005, 0.26078927516937256, 1.0655906200408936, -2.308662176132202, 0.28753259778022766, 
55, 2979043855, 20.247846603393555, -87.62480163574219, -165.06088256835938, 9.842026710510254, -0.08446334302425385, 0.20781272649765015, 1.027374267578125, -2.229104518890381, 0.2965744137763977, 
56, 2979052188, 20.306364059448242, -87.62520599365234, -165.11582946777344, 9.803861618041992, -0.09114905446767807, 0.23405441641807556, 1.003680944442749, -2.3799211978912354, 0.2891463041305542, 
57, 2979060521, 20.277103424072266, -87.627685546875, -165.08290100097656, 9.793432235717773, -0.08168044686317444, 0.2401392161846161, 1.1183046102523804, -2.1994686126708984, 0.4091489911079407, 
58, 2979068854, 20.295604705810547, -87.62776947021484, -165.096923828125, 9.831597328186035, -0.08057939261198044, 0.21414604783058167, 1.1214040517807007, -2.248443126678467, 0.45704761147499084, 
59, 2979077187, 20.251493453979492, -87.62950134277344, -165.0492706298828, 9.776819229125977, -0.07258815318346024, 0.19908283650875092, 1.0990941524505615, -2.1170167922973633, 0.4556388258934021, 
60, 2979085520, 20.26576042175293, -87.62982940673828, -165.05874633789062, 9.84152889251709, -0.0803166925907135, 0.25302621722221375, 1.149912714958191, -2.2895286083221436, 0.4962374269962311, 
61, 2979093853, 20.225099563598633, -87.633056640625, -165.01451110839844, 9.82477855682373, -0.08548222482204437, 0.24678172171115875, 1.098633050918579, -2.267500400543213, 0.4944956600666046, 
62, 2979102186, 20.25774383544922, -87.63371276855469, -165.04190063476562, 9.815378189086914, -0.08772758394479752, 0.25467008352279663, 1.2093889713287354, -2.343062162399292, 0.4212389290332794, 
63, 2979110519, 20.21958351135254, -87.63661193847656, -165.0005645751953, 9.800627708435059, -0.09740143269300461, 0.23479287326335907, 1.0684082508087158, -2.245241641998291, 0.4723649024963379, 
64, 2979118852, 20.225574493408203, -87.63611602783203, -165.001708984375, 9.84496784210205, -0.08534751832485199, 0.23258580267429352, 1.1595691442489624, -2.1873788833618164, 0.5029739737510681, 
65, 2979127185, 20.214990615844727, -87.63926696777344, -164.98818969726562, 9.794419288635254, -0.07322356104850769, 0.23407629132270813, 1.0318310260772705, -2.326899528503418, 0.35333555936813354, 
66, 2979135518, 20.21650505065918, -87.6391830444336, -164.9851837158203, 9.804208755493164, -0.08213169127702713, 0.22092440724372864, 1.119867205619812, -2.222752094268799, 0.5375275611877441, 
67, 2979143851, 20.16405487060547, -87.64167022705078, -164.92880249023438, 9.801640510559082, -0.07268170267343521, 0.22186905145645142, 1.1502200365066528, -2.184945583343506, 0.5282295346260071, 
68, 2979152184, 20.166080474853516, -87.6413345336914, -164.92608642578125, 9.824566841125488, -0.07802390307188034, 0.24001052975654602, 1.1353381872177124, -2.182051181793213, 0.5224151611328125, 
69, 2979160517, 20.103076934814453, -87.64324951171875, -164.8600616455078, 9.821897506713867, -0.08799296617507935, 0.2137695699930191, 1.0388749837875366, -2.089276075363159, 0.5406268239021301, 
70, 2979168850, 20.09500503540039, -87.64266967773438, -164.84768676757812, 9.843558311462402, -0.0988108217716217, 0.23747515678405762, 1.0935101509094238, -2.1302847862243652, 0.5533059239387512, 
71, 2979177183, 20.038599014282227, -87.64474487304688, -164.78822326660156, 9.796485900878906, -0.06637413799762726, 0.22328799962997437, 1.0559085607528687, -2.125469207763672, 0.5228762030601501, 
72, 2979185516, 20.012893676757812, -87.6444091796875, -164.7577667236328, 9.810338973999023, -0.08190442621707916, 0.2347934991121292, 1.1410244703292847, -2.1419389247894287, 0.6521000266075134, 
73, 2979193849, 19.944501876831055, -87.64640045166016, -164.6852264404297, 9.798468589782715, -0.08104340732097626, 0.19521880149841309, 1.1675353050231934, -2.091453790664673, 0.5773065090179443, 
74, 2979202182, 19.919374465942383, -87.64482116699219, -164.6553955078125, 9.825712203979492, -0.08177623897790909, 0.23227326571941376, 1.1417162418365479, -1.997475028038025, 0.595774233341217, 
75, 2979210515, 19.840463638305664, -87.6470718383789, -164.57232666015625, 9.821052551269531, -0.08529207110404968, 0.2275059074163437, 1.1715055704116821, -2.109025001525879, 0.6382939219474792, 
76, 2979218848, 19.81424331665039, -87.64649200439453, -164.5416717529297, 9.786429405212402, -0.07973626255989075, 0.23220540583133698, 1.1017836332321167, -2.131539821624756, 0.6493080854415894, 
77, 2979227181, 19.739370346069336, -87.64939880371094, -164.4632568359375, 9.815211296081543, -0.09139111638069153, 0.23993699252605438, 1.1133099794387817, -2.160970687866211, 0.6317623257637024, 
78, 2979235514, 19.68207550048828, -87.64948272705078, -164.4010467529297, 9.817399024963379, -0.07879622280597687, 0.24551880359649658, 1.1546770334243774, -2.1558990478515625, 0.8227676749229431, 
79, 2979243847, 19.592348098754883, -87.65164947509766, -164.3063201904297, 9.813735008239746, -0.09542115032672882, 0.2370692491531372, 1.2827227115631104, -2.0745739936828613, 0.6852192878723145, 
80, 2979252180, 19.567047119140625, -87.65148162841797, -164.27528381347656, 9.836304664611816, -0.07771147787570953, 0.2413535863161087, 1.256263017654419, -2.131437063217163, 0.6512290835380554, 
81, 2979260513, 19.47627067565918, -87.653564453125, -164.17965698242188, 9.823241233825684, -0.09578041732311249, 0.24407823383808136, 1.2626152038574219, -2.1282355785369873, 0.7078365087509155, 
82, 2979268846, 19.44239044189453, -87.65306854248047, -164.14096069335938, 9.800333976745605, -0.09225812554359436, 0.2439064234495163, 1.1556246280670166, -2.084460735321045, 0.6745892763137817, 
83, 2979277179, 19.352924346923828, -87.65481567382812, -164.04681396484375, 9.816553115844727, -0.0837722197175026, 0.23184649646282196, 1.2244758605957031, -2.043222188949585, 0.6680833101272583, 
84, 2979285512, 19.32152557373047, -87.65481567382812, -164.0109100341797, 9.789051055908203, -0.07368107885122299, 0.2168428599834442, 1.1273466348648071, -2.1585631370544434, 0.686371922492981, 
85, 2979293845, 19.233436584472656, -87.65641021728516, -163.9188232421875, 9.812569618225098, -0.0716615617275238, 0.2556743323802948, 1.1424334049224854, -2.0427353382110596, 0.6569410562515259, 
86, 2979302178, 19.201906204223633, -87.65657043457031, -163.88287353515625, 9.818894386291504, -0.0716862827539444, 0.23652508854866028, 1.1111583709716797, -2.1824610233306885, 0.6958234906196594, 
87, 2979310511, 19.127517700195312, -87.66024780273438, -163.8047332763672, 9.789505958557129, -0.08530966192483902, 0.2622092664241791, 1.1264756917953491, -2.267141819000244, 0.6609113216400146, 
88, 2979318844, 19.110681533813477, -87.66024780273438, -163.78306579589844, 9.796615600585938, -0.05870608240365982, 0.23986569046974182, 1.1468900442123413, -2.1873788833618164, 0.6218239665031433, 
89, 2979327177, 19.033615112304688, -87.66250610351562, -163.70223999023438, 9.81653881072998, -0.08845499157905579, 0.22533781826496124, 1.1309325695037842, -2.1518261432647705, 0.6368594765663147, 
90, 2979335510, 19.041006088256836, -87.6620101928711, -163.70553588867188, 9.773958206176758, -0.09799624234437943, 0.2500918507575989, 1.0589567422866821, -2.1914260387420654, 0.49380406737327576, 
91, 2979343843, 19.007740020751953, -87.66577911376953, -163.66854858398438, 9.797125816345215, -0.09129290282726288, 0.21699392795562744, 1.1309069395065308, -2.3603262901306152, 0.4808432459831238, 
92, 2979352176, 19.021291732788086, -87.66544342041016, -163.6788330078125, 9.811075210571289, -0.08314362913370132, 0.25529131293296814, 0.9690248966217041, -2.2225983142852783, 0.4684715270996094, 
93, 2979360509, 18.99285316467285, -87.66938781738281, -163.64744567871094, 9.824371337890625, -0.10730694979429245, 0.21673808991909027, 1.0443308353424072, -2.3363513946533203, 0.44242191314697266, 
94, 2979368842, 19.022981643676758, -87.66963958740234, -163.67324829101562, 9.828484535217285, -0.08134648948907852, 0.2613821029663086, 1.0997856855392456, -2.2956247329711914, 0.4143999218940735, 
95, 2979377175, 18.98444938659668, -87.67207336425781, -163.6317138671875, 9.800777435302734, -0.1056416854262352, 0.22423020005226135, 1.0141828060150146, -2.2152981758117676, 0.4516942501068115, 
96, 2979385508, 19.0095272064209, -87.6725845336914, -163.65255737304688, 9.842000961303711, -0.0760069191455841, 0.24785910546779633, 1.0932538509368896, -2.3394761085510254, 0.4556899964809418, 
97, 2979393841, 18.975923538208008, -87.67662048339844, -163.61582946777344, 9.806304931640625, -0.08798643946647644, 0.22497425973415375, 1.0522968769073486, -2.354639768600464, 0.47592535614967346, 
98, 2979402174, 18.974628448486328, -87.67762756347656, -163.61012268066406, 9.811375617980957, -0.09528420865535736, 0.22735749185085297, 1.1020396947860718, -2.3509256839752197, 0.5956718325614929, 
99, 2979410507, 18.909772872924805, -87.68032836914062, -163.54193115234375, 9.82687759399414, -0.08585868030786514, 0.23588649928569794, 1.0766047239303589, -2.2260563373565674, 0.5936227440834045, 
100, 2979418840, 18.916397094726562, -87.68074798583984, -163.54396057128906, 9.786857604980469, -0.08050542324781418, 0.24086853861808777, 1.1105691194534302, -2.283585786819458, 0.5317643284797668, 
101, 2979427173, 18.867103576660156, -87.68354034423828, -163.4915313720703, 9.834329605102539, -0.09091667830944061, 0.2182610183954239, 1.0574195384979248, -2.2251341342926025, 0.5130915641784668, 
102, 2979435506, 18.866649627685547, -87.68379211425781, -163.48681640625, 9.807024955749512, -0.08072195202112198, 0.25134000182151794, 1.0829826593399048, -2.248340606689453, 0.5553549528121948, 
103, 2979443839, 18.78851890563965, -87.68717193603516, -163.4055633544922, 9.811904907226562, -0.0933120995759964, 0.23378728330135345, 1.0445868968963623, -2.2734429836273193, 0.6754346489906311, 
104, 2979452172, 18.76441764831543, -87.68801879882812, -163.37710571289062, 9.827827453613281, -0.08280361443758011, 0.23815934360027313, 1.0962764024734497, -2.2586886882781982, 0.6791742444038391, 
105, 2979460505, 18.70207405090332, -87.69209289550781, -163.31103515625, 9.813921928405762, -0.0781145766377449, 0.23367443680763245, 1.1116193532943726, -2.3504133224487305, 0.6213116645812988, 
106, 2979468838, 18.684907913208008, -87.69268035888672, -163.28903198242188, 9.779986381530762, -0.09766123443841934, 0.2114611268043518, 1.1593388319015503, -2.2916290760040283, 0.6578888893127441, 
107, 2979477171, 18.64128303527832, -87.697265625, -163.24110412597656, 9.839883804321289, -0.09409059584140778, 0.21312826871871948, 1.1834160089492798, -2.417471408843994, 0.5517690181732178, 
108, 2979485504, 18.636642456054688, -87.6988754272461, -163.2323455810547, 9.833288192749023, -0.09280259162187576, 0.2546622157096863, 1.0714049339294434, -2.3890910148620605, 0.6219519972801208, 
109, 2979493837, 18.587583541870117, -87.70169067382812, -163.18026733398438, 9.79759693145752, -0.08395307511091232, 0.24909168481826782, 1.0317541360855103, -2.2488272190093994, 0.5157809853553772, 
110, 2979502170, 18.597393035888672, -87.70185852050781, -163.1858673095703, 9.796027183532715, -0.10308985412120819, 0.22530299425125122, 1.0798321962356567, -2.2369165420532227, 0.49861955642700195, 
111, 2979510503, 18.546184539794922, -87.70390319824219, -163.1313018798828, 9.80334758758545, -0.103458471596241, 0.20185242593288422, 1.073659062385559, -2.1742897033691406, 0.5021030306816101, 
112, 2979518836, 18.56692886352539, -87.70304870605469, -163.14817810058594, 9.82668399810791, -0.0975608378648758, 0.21413612365722656, 1.0405911207199097, -2.169269561767578, 0.41939470171928406, 
113, 2979527169, 18.535717010498047, -87.70603942871094, -163.11231994628906, 9.798206329345703, -0.08206216990947723, 0.220772385597229, 1.2337225675582886, -2.284508228302002, 0.44385629892349243, 
114, 2979535502, 18.536996841430664, -87.70458984375, -163.10890197753906, 9.791951179504395, -0.0959375649690628, 0.23432332277297974, 1.1398719549179077, -2.048985242843628, 0.4818422198295593, 
115, 2979543835, 18.505409240722656, -87.70816802978516, -163.07290649414062, 9.833303451538086, -0.0920528993010521, 0.21375016868114471, 1.2119247913360596, -2.3503878116607666, 0.46680667996406555, 
116, 2979552168, 18.506690979003906, -87.7077407836914, -163.06997680664062, 9.768190383911133, -0.08497580885887146, 0.23863624036312103, 1.0750678777694702, -2.162686586380005, 0.5167799592018127, 
117, 2979560501, 18.465179443359375, -87.7099609375, -163.02468872070312, 9.843957901000977, -0.08503161370754242, 0.22898392379283905, 1.1353380680084229, -2.195293426513672, 0.46132516860961914, 
118, 2979568834, 18.500192642211914, -87.71125030517578, -163.0545654296875, 9.809359550476074, -0.06249208003282547, 0.23381075263023376, 1.1947633028030396, -2.4034347534179688, 0.43235546350479126, 
119, 2979577167, 18.470794677734375, -87.71381378173828, -163.02247619628906, 9.844280242919922, -0.06532273441553116, 0.206178218126297, 0.9987373948097229, -2.2154006958007812, 0.4018489122390747, 
120, 2979585500, 18.4818058013916, -87.71424102783203, -163.02870178222656, 9.815528869628906, -0.08657944202423096, 0.20767483115196228, 1.1528068780899048, -2.2981858253479004, 0.5159603357315063, 
121, 2979593833, 18.43821907043457, -87.71732330322266, -162.9813690185547, 9.82425594329834, -0.09066759049892426, 0.21586520969867706, 1.1381045579910278, -2.3045129776000977, 0.5101971626281738, 
122, 2979602166, 18.464874267578125, -87.71775817871094, -163.00404357910156, 9.816377639770508, -0.08999642729759216, 0.23238427937030792, 1.0493510961532593, -2.303206443786621, 0.43414852023124695, 
123, 2979610499, 18.401561737060547, -87.72058868408203, -162.93734741210938, 9.839751243591309, -0.07568956166505814, 0.2288205772638321, 1.0724809169769287, -2.2291815280914307, 0.5827366709709167, 
124, 2979618832, 18.403030395507812, -87.72144317626953, -162.93316650390625, 9.775649070739746, -0.0808027982711792, 0.2534383237361908, 1.2628458738327026, -2.3163211345672607, 0.5741559267044067, 
125, 2979627165, 18.324316024780273, -87.72634887695312, -162.85015869140625, 9.816055297851562, -0.10928483307361603, 0.20586806535720825, 1.1884876489639282, -2.418905735015869, 0.7250493764877319, 
126, 2979635498, 18.322946548461914, -87.72737884521484, -162.84434509277344, 9.828752517700195, -0.09630073606967926, 0.19310764968395233, 1.107751727104187, -2.3648343086242676, 0.5989505052566528, 
127, 2979643831, 18.23215675354004, -87.730224609375, -162.74996948242188, 9.790168762207031, -0.08861731737852097, 0.2376720905303955, 1.0842121839523315, -2.1673741340637207, 0.6962077617645264, 
128, 2979652164, 18.211597442626953, -87.72927856445312, -162.72509765625, 9.782622337341309, -0.09639015048742294, 0.22980080544948578, 1.0901546478271484, -2.0900192260742188, 0.6044062972068787, 
129, 2979660497, 18.148380279541016, -87.73212432861328, -162.65863037109375, 9.835759162902832, -0.11390531063079834, 0.2182285338640213, 1.0635414123535156, -2.2216508388519287, 0.5738486051559448, 
130, 2979668830, 18.174617767333984, -87.73220825195312, -162.68069458007812, 9.80686092376709, -0.11940976977348328, 0.21688231825828552, 1.0764766931533813, -2.2765419483184814, 0.42997339367866516, 
131, 2979677163, 18.1386775970459, -87.73471069335938, -162.6409912109375, 9.782026290893555, -0.08529629558324814, 0.25722378492355347, 1.1306252479553223, -2.1951143741607666, 0.4311516284942627, 
132, 2979685496, 18.151159286499023, -87.73332977294922, -162.6496124267578, 9.853384971618652, -0.1030547097325325, 0.2102678120136261, 1.0376455783843994, -2.1160688400268555, 0.4451882541179657, 
133, 2979693829, 18.105365753173828, -87.73462677001953, -162.60035705566406, 9.812934875488281, -0.09419319778680801, 0.2538003623485565, 1.0919474363327026, -2.0650196075439453, 0.43640249967575073, 
134, 2979702162, 18.124156951904297, -87.73548889160156, -162.61521911621094, 9.78231143951416, -0.07662910968065262, 0.24010246992111206, 1.0401811599731445, -2.352846622467041, 0.4914218783378601, 
135, 2979710495, 18.090248107910156, -87.73808288574219, -162.57839965820312, 9.839590072631836, -0.08320816606283188, 0.23039069771766663, 1.0249918699264526, -2.2520034313201904, 0.4369916319847107, 
136, 2979718828, 18.10791778564453, -87.7373046875, -162.59170532226562, 9.841520309448242, -0.08590030670166016, 0.22367778420448303, 1.0947908163070679, -2.167834997177124, 0.4386822283267975, 
137, 2979727161, 18.05157470703125, -87.73989868164062, -162.5320587158203, 9.796170234680176, -0.07550755888223648, 0.2253631353378296, 1.0752471685409546, -2.1953704357147217, 0.5296895503997803, 
138, 2979735494, 18.026798248291016, -87.73877716064453, -162.50253295898438, 9.807053565979004, -0.07222127169370651, 0.21023337543010712, 1.1416137218475342, -2.080413818359375, 0.6228998303413391, 
139, 2979743827, 17.97489356994629, -87.74180603027344, -162.4467010498047, 9.831297874450684, -0.09039580076932907, 0.22476603090763092, 1.136772632598877, -2.2396576404571533, 0.5264365673065186, 
140, 2979752160, 17.94756317138672, -87.74146270751953, -162.41529846191406, 9.756322860717773, -0.0969550609588623, 0.24755758047103882, 1.064437985420227, -2.150775909423828, 0.6553530097007751, 
141, 2979760493, 17.87343978881836, -87.7450180053711, -162.33782958984375, 9.814152717590332, -0.08736810088157654, 0.2525215148925781, 1.0649758577346802, -2.2939341068267822, 0.650793731212616, 
142, 2979768826, 17.880325317382812, -87.74484252929688, -162.3406524658203, 9.794961929321289, -0.07868126779794693, 0.232393279671669, 1.0508370399475098, -2.2357897758483887, 0.5126817226409912, 
143, 2979777159, 17.826374053955078, -87.74701690673828, -162.28338623046875, 9.84732723236084, -0.07679002732038498, 0.22461578249931335, 1.08567214012146, -2.1974964141845703, 0.5210575461387634, 
144, 2979785492, 17.82893180847168, -87.74684143066406, -162.28225708007812, 9.808692932128906, -0.08984215557575226, 0.2524511516094208, 1.0042445659637451, -2.2005958557128906, 0.5203403830528259, 
145, 2979793825, 17.808013916015625, -87.7507553100586, -162.25833129882812, 9.809944152832031, -0.09480603784322739, 0.2545394003391266, 1.0440235137939453, -2.3821239471435547, 0.41350340843200684, 
146, 2979802158, 17.8194637298584, -87.75083923339844, -162.2659454345703, 9.791671752929688, -0.09815263748168945, 0.23354245722293854, 1.037901520729065, -2.2684991359710693, 0.49997711181640625, 
147, 2979810491, 17.802106857299805, -87.754150390625, -162.24610900878906, 9.817113876342773, -0.10115647315979004, 0.27185341715812683, 0.9734817743301392, -2.338733434677124, 0.37843748927116394, 
148, 2979818824, 17.811864852905273, -87.75406646728516, -162.25123596191406, 9.823760986328125, -0.08687009662389755, 0.24970966577529907, 1.1276026964187622, -2.229309320449829, 0.4995671808719635, 
149, 2979827157, 17.78504180908203, -87.75615692138672, -162.22164916992188, 9.822754859924316, -0.08700564503669739, 0.25035998225212097, 0.9987375140190125, -2.1923482418060303, 0.3820747435092926, 
150, 2979835490, 17.80279541015625, -87.7563247680664, -162.23529052734375, 9.831161499023438, -0.08517904579639435, 0.2330712080001831, 1.067178726196289, -2.2696006298065186, 0.4685996472835541, 
151, 2979843823, 17.775188446044922, -87.76008605957031, -162.20509338378906, 9.834988594055176, -0.08413821458816528, 0.22126534581184387, 0.9841117858886719, -2.40484356880188, 0.4534616470336914, 
152, 2979852156, 17.779539108276367, -87.76034545898438, -162.20497131347656, 9.792346000671387, -0.08493952453136444, 0.24718017876148224, 1.1124390363693237, -2.247546672821045, 0.5308678150177002, 
153, 2979860489, 17.672182083129883, -87.76384735107422, -162.09410095214844, 9.81954288482666, -0.06556123495101929, 0.21644718945026398, 1.0839303731918335, -2.228515386581421, 0.7906986474990845, 
154, 2979868822, 17.66533851623535, -87.76454162597656, -162.0824737548828, 9.801523208618164, -0.07111126184463501, 0.21230164170265198, 1.1509628295898438, -2.283355474472046, 0.5981307625770569, 
155, 2979877155, 17.59262466430664, -87.76760864257812, -162.00523376464844, 9.813730239868164, -0.08880855143070221, 0.24276432394981384, 1.2098755836486816, -2.2569985389709473, 0.6345030069351196, 
156, 2979885488, 17.549198150634766, -87.76927947998047, -161.95729064941406, 9.820228576660156, -0.08076946437358856, 0.2222403585910797, 1.1023471355438232, -2.3474936485290527, 0.795821487903595, 
157, 2979893821, 17.47989845275879, -87.77217102050781, -161.88380432128906, 9.815860748291016, -0.08115161210298538, 0.2295539230108261, 1.1718896627426147, -2.2620444297790527, 0.6184172630310059, 
158, 2979902154, 17.447111129760742, -87.7724380493164, -161.84619140625, 9.794611930847168, -0.08876767009496689, 0.2555725574493408, 1.1535754203796387, -2.214862823486328, 0.7032516002655029, 
159, 2979910487, 17.36653709411621, -87.77648162841797, -161.76107788085938, 9.810272216796875, -0.09423614293336868, 0.2385033816099167, 1.205726146697998, -2.3466482162475586, 0.7006646394729614, 
160, 2979918820, 17.36066246032715, -87.7779769897461, -161.75030517578125, 9.803590774536133, -0.10384708642959595, 0.22158478200435638, 1.1624892950057983, -2.38319993019104, 0.6252050995826721, 
161, 2979927153, 17.305479049682617, -87.78167724609375, -161.6906280517578, 9.844226837158203, -0.0946335569024086, 0.22366726398468018, 1.2116941213607788, -2.3466737270355225, 0.5740790367126465, 
162, 2979935486, 17.321950912475586, -87.78203582763672, -161.70208740234375, 9.798722267150879, -0.08467181771993637, 0.23221513628959656, 1.1789848804473877, -2.30961012840271, 0.49385523796081543, 
163, 2979943819, 17.269268035888672, -87.7860107421875, -161.64520263671875, 9.800079345703125, -0.09061050415039062, 0.22227337956428528, 1.1645638942718506, -2.3385794162750244, 0.5575578212738037, 
164, 2979952152, 17.278718948364258, -87.7862777709961, -161.64926147460938, 9.81208324432373, -0.08492501080036163, 0.2222084254026413, 1.2185076475143433, -2.2433459758758545, 0.5085322260856628, 
165, 2979960485, 17.22749137878418, -87.78972625732422, -161.59332275390625, 9.8058500289917, -0.07990004122257233, 0.21236832439899445, 1.2356947660446167, -2.3651416301727295, 0.5613231658935547, 
166, 2979968818, 17.233400344848633, -87.79070281982422, -161.59381103515625, 9.825223922729492, -0.094420425593853, 0.2416120171546936, 1.238179326057434, -2.3518481254577637, 0.559991180896759, 
167, 2979977151, 17.159332275390625, -87.79318237304688, -161.51617431640625, 9.797469139099121, -0.08065132796764374, 0.20828083157539368, 1.0844682455062866, -2.163557529449463, 0.604098916053772, 
168, 2979985484, 17.146827697753906, -87.79283142089844, -161.49850463867188, 9.819765090942383, -0.0599416084587574, 0.2161625176668167, 1.1867202520370483, -2.182921886444092, 0.5959792137145996, 
169, 2979993817, 17.07460594177246, -87.79576110839844, -161.42221069335938, 9.811248779296875, -0.096877321600914, 0.2419055849313736, 1.1714285612106323, -2.2488527297973633, 0.6225667595863342, 
170, 2980002150, 17.05079460144043, -87.79576110839844, -161.39271545410156, 9.788122177124023, -0.0828641876578331, 0.2502404451370239, 1.2478102445602417, -2.167041063308716, 0.6472845673561096, 
171, 2980010483, 16.97238540649414, -87.79930877685547, -161.3108673095703, 9.809479713439941, -0.08681958168745041, 0.22844354808330536, 1.0736078023910522, -2.253796339035034, 0.6498203277587891, 
172, 2980018816, 16.960142135620117, -87.79877471923828, -161.29397583007812, 9.799986839294434, -0.09920383989810944, 0.21389473974704742, 1.12419593334198, -2.157179832458496, 0.5834026336669922, 
173, 2980027149, 16.899192810058594, -87.80091857910156, -161.2291259765625, 9.830498695373535, -0.0898740366101265, 0.2433135211467743, 1.1398718357086182, -2.1948835849761963, 0.5502065420150757, 
174, 2980035482, 16.91162109375, -87.80055236816406, -161.23634338378906, 9.819014549255371, -0.0857723280787468, 0.21512913703918457, 1.1947120428085327, -2.1722922325134277, 0.4717757999897003, 
175, 2980043815, 16.882774353027344, -87.80136108398438, -161.20338439941406, 9.794770240783691, -0.07162532210350037, 0.22492653131484985, 1.1538059711456299, -2.090787410736084, 0.36493879556655884, 
176, 2980052148, 16.88136863708496, -87.80020141601562, -161.1973419189453, 9.844691276550293, -0.07929685711860657, 0.24899722635746002, 1.131393551826477, -2.0825140476226807, 0.5084041357040405, 
177, 2980060481, 16.826143264770508, -87.8035888671875, -161.13739013671875, 9.765653610229492, -0.07348427921533585, 0.2217184603214264, 1.2368217706680298, -2.3426778316497803, 0.5720298886299133, 
178, 2980068814, 16.830751419067383, -87.80411529541016, -161.1363067626953, 9.838926315307617, -0.08546385169029236, 0.21881034970283508, 1.2530099153518677, -2.274415969848633, 0.5426504015922546, 
179, 2980077147, 16.807767868041992, -87.8071517944336, -161.10926818847656, 9.797993659973145, -0.09697765111923218, 0.22397920489311218, 1.1610803604125977, -2.324824810028076, 0.4080219566822052, 
180, 2980085480, 16.798934936523438, -87.80724334716797, -161.09619140625, 9.807819366455078, -0.08288218080997467, 0.2605856955051422, 1.0808310508728027, -2.238607168197632, 0.5898317694664001, 
181, 2980093813, 16.769168853759766, -87.8108139038086, -161.0618133544922, 9.786505699157715, -0.09074704349040985, 0.2280115932226181, 1.2206591367721558, -2.388040542602539, 0.46183744072914124, 
182, 2980102146, 16.771270751953125, -87.81018829345703, -161.05917358398438, 9.801971435546875, -0.0948825478553772, 0.23161567747592926, 1.1461728811264038, -2.144526243209839, 0.5108886361122131, 
183, 2980110479, 16.717130661010742, -87.81314086914062, -161.0016326904297, 9.794081687927246, -0.08637358993291855, 0.23040445148944855, 1.0903083086013794, -2.267423391342163, 0.5378349423408508, 
184, 2980118812, 16.71861457824707, -87.81314086914062, -160.99896240234375, 9.81234073638916, -0.06870809197425842, 0.2577040493488312, 1.0633366107940674, -2.225288152694702, 0.5343001484870911, 
185, 2980127145, 16.654296875, -87.81627655029297, -160.93099975585938, 9.8388090133667, -0.0680929571390152, 0.23576079308986664, 1.1131563186645508, -2.2840213775634766, 0.5912662148475647, 
186, 2980135478, 16.638269424438477, -87.8166275024414, -160.91053771972656, 9.792276382446289, -0.08480102568864822, 0.26414647698402405, 1.0989658832550049, -2.2398881912231445, 0.6260247230529785, 
187, 2980143811, 16.566131591796875, -87.82012939453125, -160.8352813720703, 9.818296432495117, -0.1002408042550087, 0.20485368371009827, 1.046405553817749, -2.3246712684631348, 0.6370388865470886, 
188, 2980152144, 16.55963706970215, -87.82102966308594, -160.82432556152344, 9.820737838745117, -0.08170495927333832, 0.22437001764774323, 1.1042169332504272, -2.313093423843384, 0.6007434725761414, 
189, 2980160477, 16.49311065673828, -87.82444763183594, -160.75399780273438, 9.78958511352539, -0.08532881736755371, 0.2593734860420227, 1.137463927268982, -2.307765483856201, 0.6081972122192383, 
190, 2980168810, 16.510202407836914, -87.82426452636719, -160.76629638671875, 9.816495895385742, -0.10272636264562607, 0.2635670006275177, 1.1496307849884033, -2.2193708419799805, 0.46299007534980774, 
191, 2980177143, 16.480453491210938, -87.8274154663086, -160.73251342773438, 9.798053741455078, -0.09410519897937775, 0.24928267300128937, 1.1515007019042969, -2.352565288543701, 0.44818511605262756, 
192, 2980185476, 16.522541046142578, -87.82913208007812, -160.76942443847656, 9.824522018432617, -0.0823192372918129, 0.22135016322135925, 1.1929446458816528, -2.4410879611968994, 0.4105577766895294, 
193, 2980193809, 16.490297317504883, -87.83102416992188, -160.733154296875, 9.7896146774292, -0.11371942609548569, 0.21022747457027435, 1.1619001626968384, -2.209381580352783, 0.41895925998687744, 
194, 2980202142, 16.52639389038086, -87.83102416992188, -160.76478576660156, 9.816635131835938, -0.07636729627847672, 0.2815801203250885, 1.1144882440567017, -2.279564619064331, 0.3892723619937897, 
195, 2980210475, 16.504375457763672, -87.83354949951172, -160.7393341064453, 9.824909210205078, -0.07743962109088898, 0.2122575044631958, 1.079038143157959, -2.261122465133667, 0.38169053196907043, 
196, 2980218808, 16.517330169677734, -87.83354949951172, -160.74765014648438, 9.820974349975586, -0.09266394376754761, 0.21597130596637726, 1.1307789087295532, -2.235687494277954, 0.4860173165798187, 
197, 2980227141, 16.465028762817383, -87.83599090576172, -160.69146728515625, 9.79368782043457, -0.08894173055887222, 0.23156510293483734, 1.1185096502304077, -2.2252111434936523, 0.5159091949462891, 
198, 2980235474, 16.446929931640625, -87.83662414550781, -160.66925048828125, 9.83581256866455, -0.07723372429609299, 0.24871733784675598, 1.0691254138946533, -2.2672953605651855, 0.6402150392532349, 
199, 2980243807, 16.406600952148438, -87.84015655517578, -160.6253662109375, 9.81274127960205, -0.10433011502027512, 0.21746115386486053, 1.1006821393966675, -2.3585076332092285, 0.4962886571884155, 
200, 2980252140, 16.423320770263672, -87.84024047851562, -160.6376953125, 9.795029640197754, -0.09460574388504028, 0.2550055980682373, 1.0991195440292358, -2.2586889266967773, 0.4747726321220398, 
201, 2980260473, 16.37454605102539, -87.84269714355469, -160.5859832763672, 9.813372611999512, -0.08060986548662186, 0.21867656707763672, 1.0154892206192017, -2.2272603511810303, 0.4954945743083954, 
202, 2980268806, 16.39154052734375, -87.84297180175781, -160.59815979003906, 9.819279670715332, -0.10041747242212296, 0.22733010351657867, 1.156649112701416, -2.267090320587158, 0.47753891348838806, 
203, 2980277139, 16.367530822753906, -87.84568786621094, -160.56991577148438, 9.794756889343262, -0.09867353737354279, 0.25415748357772827, 1.168073296546936, -2.3128886222839355, 0.41101881861686707, 
204, 2980285472, 16.39443588256836, -87.84668731689453, -160.59161376953125, 9.8496675491333, -0.08352134376764297, 0.24409815669059753, 1.191279649734497, -2.344521999359131, 0.4543837308883667, 
205, 2980293805, 16.357921600341797, -87.84886932373047, -160.55233764648438, 9.781730651855469, -0.06346510350704193, 0.22722892463207245, 1.0059607028961182, -2.2355849742889404, 0.4408082067966461, 
206, 2980302138, 16.367443084716797, -87.84805297851562, -160.55743408203125, 9.839421272277832, -0.08400912582874298, 0.2108306735754013, 1.1075468063354492, -2.162712335586548, 0.47912704944610596, 
207, 2980310471, 16.317691802978516, -87.85069274902344, -160.50494384765625, 9.812867164611816, -0.08341941237449646, 0.19651709496974945, 0.9926924705505371, -2.263632297515869, 0.5111960768699646, 
208, 2980318804, 16.30714225769043, -87.84978485107422, -160.48960876464844, 9.803062438964844, -0.07139237225055695, 0.2615334093570709, 1.1446106433868408, -2.1070783138275146, 0.559197187423706, 
209, 2980327137, 16.25180435180664, -87.85187530517578, -160.43011474609375, 9.796834945678711, -0.08895459771156311, 0.22856488823890686, 1.1560343503952026, -2.198546886444092, 0.5235934257507324, 
210, 2980335470, 16.250465393066406, -87.85334014892578, -160.42454528808594, 9.818035125732422, -0.07515113055706024, 0.22717931866645813, 1.0828802585601807, -2.3850696086883545, 0.5950314998626709, 
211, 2980343803, 16.18027687072754, -87.85607147216797, -160.34983825683594, 9.808728218078613, -0.06901244819164276, 0.21958789229393005, 1.1918174028396606, -2.192680835723877, 0.5914967060089111, 
212, 2980352136, 16.168533325195312, -87.85698699951172, -160.33303833007812, 9.827509880065918, -0.09509266167879105, 0.22130335867404938, 1.1740669012069702, -2.317422389984131, 0.6280226707458496, 
213, 2980360469, 16.08894157409668, -87.85871887207031, -160.2492218017578, 9.804160118103027, -0.05562429875135422, 0.2320735901594162, 1.1729398965835571, -2.138967990875244, 0.6202359199523926, 
214, 2980368802, 16.074676513671875, -87.85954284667969, -160.23057556152344, 9.811482429504395, -0.09630300849676132, 0.23035237193107605, 1.0982487201690674, -2.280435085296631, 0.6255636215209961, 
215, 2980377135, 16.003488540649414, -87.86119079589844, -160.1553497314453, 9.826519966125488, -0.08690740913152695, 0.22348809242248535, 1.1423051357269287, -2.130335807800293, 0.575513482093811, 
216, 2980385468, 15.996407508850098, -87.86064147949219, -160.1443634033203, 9.822066307067871, -0.11000572890043259, 0.24703364074230194, 1.0422048568725586, -2.1422977447509766, 0.5499248504638672, 
217, 2980393801, 15.90760612487793, -87.86210632324219, -160.05245971679688, 9.818804740905762, -0.08380890637636185, 0.2420046180486679, 1.0231990814208984, -2.0773401260375977, 0.6393440961837769, 
218, 2980402134, 15.915797233581543, -87.86183166503906, -160.05702209472656, 9.832083702087402, -0.07825542241334915, 0.21508769690990448, 1.0213804244995117, -2.1956775188446045, 0.4935990571975708, 
219, 2980410467, 15.864745140075684, -87.86457824707031, -160.00277709960938, 9.82919692993164, -0.09347108751535416, 0.23371315002441406, 1.0368002653121948, -2.2719316482543945, 0.5183680653572083, 
220, 2980418800, 15.867198944091797, -87.86439514160156, -160.00045776367188, 9.811788558959961, -0.07383018732070923, 0.21224859356880188, 1.1437909603118896, -2.2196271419525146, 0.532584011554718, 
221, 2980427133, 15.787644386291504, -87.86742401123047, -159.91758728027344, 9.812397956848145, -0.07060465216636658, 0.27257415652275085, 1.066794514656067, -2.2799232006073, 0.653380811214447, 
222, 2980435466, 15.767913818359375, -87.86769104003906, -159.89381408691406, 9.79952335357666, -0.08889169245958328, 0.22501683235168457, 1.0505551099777222, -2.1913235187530518, 0.6234633326530457, 
223, 2980443799, 15.70561695098877, -87.8707275390625, -159.82791137695312, 9.822582244873047, -0.07698304206132889, 0.21317130327224731, 1.1042168140411377, -2.3129141330718994, 0.583966076374054, 
224, 2980452132, 15.695239067077637, -87.87127685546875, -159.81236267089844, 9.821481704711914, -0.07799528539180756, 0.2275206446647644, 1.1917407512664795, -2.262556791305542, 0.6060456037521362, 
225, 2980460465, 15.606470108032227, -87.87394714355469, -159.71961975097656, 9.80941390991211, -0.09057207405567169, 0.2739827334880829, 1.1387962102890015, -2.2332026958465576, 0.6853729486465454, 
226, 2980468798, 15.587567329406738, -87.8747787475586, -159.69580078125, 9.799843788146973, -0.10810520499944687, 0.23157376050949097, 1.166792392730713, -2.3096611499786377, 0.6567361354827881, 
227, 2980477131, 15.495423316955566, -87.87744903564453, -159.5997314453125, 9.832834243774414, -0.07860848307609558, 0.23817004263401031, 1.1236836910247803, -2.1974966526031494, 0.689599335193634, 
228, 2980485464, 15.47958755493164, -87.87726593017578, -159.57920837402344, 9.798517227172852, -0.08444901555776596, 0.23825393617153168, 1.1377202272415161, -2.1985208988189697, 0.6107586026191711, 
229, 2980493797, 15.403524398803711, -87.87920379638672, -159.49913024902344, 9.810844421386719, -0.09425318241119385, 0.21811451017856598, 1.1273465156555176, -2.1420671939849854, 0.6007434725761414, 
230, 2980502130, 15.385994911193848, -87.87882995605469, -159.476806640625, 9.838661193847656, -0.08552488684654236, 0.2095576524734497, 1.149912714958191, -2.1553869247436523, 0.6063273549079895, 
231, 2980510463, 15.311209678649902, -87.8809585571289, -159.3990020751953, 9.79792308807373, -0.09658589214086533, 0.19266372919082642, 1.019689917564392, -2.1677584648132324, 0.5964658856391907, 
232, 2980518796, 15.31240177154541, -87.88067626953125, -159.396484375, 9.787612915039062, -0.08407941460609436, 0.25242406129837036, 1.024326205253601, -2.1879425048828125, 0.5242593884468079, 
233, 2980527129, 15.247750282287598, -87.8827133178711, -159.32757568359375, 9.833186149597168, -0.09450764209032059, 0.2415349930524826, 1.1618489027023315, -2.18312668800354, 0.5603498220443726, 
234, 2980535462, 15.250738143920898, -87.88317108154297, -159.32537841796875, 9.798584938049316, -0.068946473300457, 0.21009013056755066, 1.1965817213058472, -2.3131957054138184, 0.5561746954917908, 
235, 2980543795, 15.185165405273438, -87.88539123535156, -159.2561798095703, 9.823193550109863, -0.07646273076534271, 0.24092698097229004, 1.1039352416992188, -2.181948661804199, 0.561451256275177, 
236, 2980552128, 15.168485641479492, -87.88548278808594, -159.23500061035156, 9.824718475341797, -0.08082498610019684, 0.22933298349380493, 1.0988634824752808, -2.178260087966919, 0.6068140268325806, 
237, 2980560461, 15.091026306152344, -87.88733673095703, -159.1545867919922, 9.793569564819336, -0.09782680124044418, 0.2446533590555191, 1.0279632806777954, -2.1550281047821045, 0.6056101322174072, 
238, 2980568794, 15.086938858032227, -87.88733673095703, -159.14529418945312, 9.831116676330566, -0.09430805593729019, 0.22214439511299133, 1.189409852027893, -2.190375566482544, 0.5559185743331909, 
239, 2980577127, 15.026546478271484, -87.8884506225586, -159.08143615722656, 9.810028076171875, -0.09857950359582901, 0.24405910074710846, 1.0793967247009277, -2.110971689224243, 0.5179070234298706, 
240, 2980585460, 15.016804695129395, -87.88770294189453, -159.06637573242188, 9.80833625793457, -0.06451784819364548, 0.2179284542798996, 1.218251347541809, -2.1179895401000977, 0.5627831816673279, 
241, 2980593793, 14.941043853759766, -87.8901138305664, -158.98605346679688, 9.83436393737793, -0.09752962738275528, 0.23607009649276733, 1.2072886228561401, -2.248648166656494, 0.6311219930648804, 
242, 2980602126, 14.953900337219238, -87.89039611816406, -158.993408203125, 9.798664093017578, -0.08829811215400696, 0.21593257784843445, 1.233747959136963, -2.279282808303833, 0.5045875906944275, 
243, 2980610459, 14.897584915161133, -87.89373779296875, -158.93331909179688, 9.811424255371094, -0.07464978843927383, 0.2698753774166107, 1.1047035455703735, -2.354844570159912, 0.5644736886024475, 
244, 2980618792, 14.910991668701172, -87.8939208984375, -158.94261169433594, 9.814302444458008, -0.09320395439863205, 0.21607498824596405, 1.0672043561935425, -2.2655282020568848, 0.49137070775032043, 
245, 2980627125, 14.827324867248535, -87.89681243896484, -158.855224609375, 9.826384544372559, -0.07728244364261627, 0.23981519043445587, 1.1093652248382568, -2.2256717681884766, 0.654738187789917, 
246, 2980635458, 14.798219680786133, -87.89671325683594, -158.82052612304688, 9.806674003601074, -0.0852598026394844, 0.22100929915905, 1.2364888191223145, -2.163532018661499, 0.6635239720344543, 
247, 2980643791, 14.735898971557617, -87.8998794555664, -158.7533416748047, 9.797025680541992, -0.06439109146595001, 0.21508947014808655, 1.2531380653381348, -2.325439691543579, 0.5910100936889648, 
248, 2980652124, 14.70817756652832, -87.90015411376953, -158.7208251953125, 9.829917907714844, -0.09075754880905151, 0.2547438442707062, 1.1460448503494263, -2.2484686374664307, 0.675895631313324, 
249, 2980660457, 14.631933212280273, -87.90258026123047, -158.6403045654297, 9.794110298156738, -0.08232823759317398, 0.2483692467212677, 1.1601072549819946, -2.2271320819854736, 0.6235401630401611, 
250, 2980668790, 14.62667465209961, -87.90314483642578, -158.63003540039062, 9.838865280151367, -0.09132210910320282, 0.23672299087047577, 1.1767051219940186, -2.274031400680542, 0.581660807132721, 
251, 2980677123, 14.55705738067627, -87.90595245361328, -158.55618286132812, 9.795670509338379, -0.09750435501337051, 0.20261132717132568, 1.1570076942443848, -2.266911029815674, 0.6036121845245361, 
252, 2980685456, 14.540977478027344, -87.90595245361328, -158.53512573242188, 9.806796073913574, -0.08110328763723373, 0.21402406692504883, 1.1753731966018677, -2.2234182357788086, 0.6177769303321838, 
253, 2980693789, 14.485335350036621, -87.90763092041016, -158.4762420654297, 9.84047794342041, -0.09124073386192322, 0.19377481937408447, 1.0385675430297852, -2.137815237045288, 0.5003868937492371, 
254, 2980702122, 14.498980522155762, -87.90763092041016, -158.485595703125, 9.809000968933105, -0.09942417591810226, 0.2191971093416214, 1.1006051301956177, -2.249826431274414, 0.4874260425567627, 
255, 2980710455, 14.453726768493652, -87.9102554321289, -158.43661499023438, 9.817999839782715, -0.08244229108095169, 0.21984827518463135, 1.097813367843628, -2.2609944343566895, 0.4885275363922119, 
256, 2980718788, 14.4819974899292, -87.90931701660156, -158.46078491210938, 9.823172569274902, -0.07513146102428436, 0.26256030797958374, 1.075272798538208, -2.1708579063415527, 0.4006962776184082, 
257, 2980727121, 14.438895225524902, -87.91015625, -158.41339111328125, 9.79405403137207, -0.09704162925481796, 0.23776467144489288, 1.1701223850250244, -2.057386636734009, 0.4284621477127075, 
258, 2980735454, 14.450922012329102, -87.90921783447266, -158.42088317871094, 9.841323852539062, -0.0925244688987732, 0.20877422392368317, 1.1180741786956787, -2.142169713973999, 0.4678824245929718, 
259, 2980743787, 14.384207725524902, -87.91118621826172, -158.35040283203125, 9.82369613647461, -0.11130767315626144, 0.19995364546775818, 1.1163580417633057, -2.1887876987457275, 0.5687512755393982, 
260, 2980752120, 14.399285316467285, -87.91043853759766, -158.36083984375, 9.813488960266113, -0.08576934039592743, 0.28575778007507324, 1.1325206756591797, -2.1333329677581787, 0.451130747795105, 
261, 2980760453, 14.346691131591797, -87.9124984741211, -158.3035888671875, 9.795650482177734, -0.09261667728424072, 0.21829037368297577, 1.213666558265686, -2.2375829219818115, 0.5223382711410522, 
262, 2980768786, 14.361422538757324, -87.91278076171875, -158.31314086914062, 9.856344223022461, -0.07030251622200012, 0.20994479954242706, 1.195890188217163, -2.2572543621063232, 0.48791274428367615, 
263, 2980777119, 14.303902626037598, -87.91513061523438, -158.25193786621094, 9.789453506469727, -0.09958382695913315, 0.23412446677684784, 1.0861331224441528, -2.2467780113220215, 0.5406011343002319, 
264, 2980785452, 14.334637641906738, -87.91559600830078, -158.27850341796875, 9.807003021240234, -0.06224675104022026, 0.24992118775844574, 1.0825984477996826, -2.302924394607544, 0.4228782057762146, 
265, 2980793785, 14.26872730255127, -87.91888427734375, -158.20851135253906, 9.823719024658203, -0.10261712223291397, 0.223288431763649, 1.143995761871338, -2.360300064086914, 0.6101951003074646, 
266, 2980802118, 14.300753593444824, -87.91935729980469, -158.2366485595703, 9.790016174316406, -0.09857045859098434, 0.1950569599866867, 1.0500683784484863, -2.308150053024292, 0.41719186305999756, 
267, 2980810451, 14.2677640914917, -87.92302703857422, -158.2002410888672, 9.833710670471191, -0.06690844148397446, 0.245784729719162, 1.064771056175232, -2.3702902793884277, 0.46091535687446594, 
268, 2980818784, 14.29429817199707, -87.9231185913086, -158.22259521484375, 9.794672966003418, -0.10012976825237274, 0.21928326785564423, 1.075272798538208, -2.250389814376831, 0.4296915829181671, 
269, 2980827117, 14.243427276611328, -87.92472839355469, -158.16751098632812, 9.8235502243042, -0.09184587001800537, 0.22240892052650452, 1.167356014251709, -2.1937055587768555, 0.4997977614402771, 
270, 2980835450, 14.275943756103516, -87.92491149902344, -158.19631958007812, 9.821084022521973, -0.08385621756315231, 0.22504208981990814, 1.0317797660827637, -2.308662176132202, 0.4143230617046356, 
271, 2980843783, 14.230667114257812, -87.92774200439453, -158.1472930908203, 9.800394058227539, -0.08513826131820679, 0.208565816283226, 1.103883981704712, -2.2946512699127197, 0.49977216124534607, 
272, 2980852116, 14.261241912841797, -87.92821502685547, -158.17373657226562, 9.821131706237793, -0.09029164165258408, 0.20650647580623627, 1.070969581604004, -2.2877867221832275, 0.42088034749031067, 
273, 2980860449, 14.224034309387207, -87.93095397949219, -158.1328582763672, 9.798287391662598, -0.06959153711795807, 0.27975741028785706, 1.0864661931991577, -2.3333287239074707, 0.4727747142314911, 
274, 2980868782, 14.244330406188965, -87.93199920654297, -158.14878845214844, 9.80516529083252, -0.09732884168624878, 0.2149379551410675, 1.1037559509277344, -2.344547748565674, 0.4823545217514038, 
275, 2980877115, 14.205538749694824, -87.93511962890625, -158.10638427734375, 9.829954147338867, -0.08661608397960663, 0.19443103671073914, 1.0909743309020996, -2.370443820953369, 0.4886299669742584, 
276, 2980885448, 14.198898315429688, -87.93540954589844, -158.09523010253906, 9.8214111328125, -0.0619695670902729, 0.21674126386642456, 1.1219931840896606, -2.2696261405944824, 0.5841711163520813, 
277, 2980893781, 14.11079216003418, -87.93787384033203, -158.00340270996094, 9.797778129577637, -0.09051390737295151, 0.2299751490354538, 1.093638300895691, -2.264016628265381, 0.6824016571044922, 
278, 2980902114, 14.09764289855957, -87.93930053710938, -157.9855499267578, 9.815757751464844, -0.08708114176988602, 0.21075822412967682, 1.1390008926391602, -2.3543577194213867, 0.6340675354003906, 
279, 2980910447, 14.042296409606934, -87.94253540039062, -157.9261932373047, 9.811772346496582, -0.08640207350254059, 0.2045297473669052, 1.1367982625961304, -2.325721502304077, 0.5521532297134399, 
280, 2980918780, 14.036057472229004, -87.94367218017578, -157.91537475585938, 9.787016868591309, -0.10243508219718933, 0.26826050877571106, 1.1247081756591797, -2.338758707046509, 0.5986686944961548, 
281, 2980927113, 13.973962783813477, -87.94757843017578, -157.84902954101562, 9.790803909301758, -0.073650062084198, 0.1790958195924759, 1.156546711921692, -2.404766798019409, 0.603509783744812, 
282, 2980935446, 13.963252067565918, -87.94786834716797, -157.83462524414062, 9.839214324951172, -0.07836392521858215, 0.21778078377246857, 1.0217646360397339, -2.25789475440979, 0.594493567943573, 
283, 2980943779, 13.93179988861084, -87.95005798339844, -157.79901123046875, 9.779379844665527, -0.10327566415071487, 0.2138061672449112, 1.1571359634399414, -2.220472574234009, 0.42118769884109497, 
284, 2980952112, 13.954768180847168, -87.9505386352539, -157.8175048828125, 9.80863094329834, -0.07838164269924164, 0.2322295755147934, 1.1079821586608887, -2.320496082305908, 0.46498796343803406, 
285, 2980960445, 13.92385482788086, -87.95263671875, -157.78262329101562, 9.775094032287598, -0.10437564551830292, 0.1995895951986313, 1.1500918865203857, -2.258176565170288, 0.4266434907913208, 
286, 2980968778, 13.959844589233398, -87.95225524902344, -157.81405639648438, 9.85218620300293, -0.08967345952987671, 0.23623992502689362, 1.1227105855941772, -2.22533917427063, 0.38476425409317017, 
287, 2980977111, 13.922741889953613, -87.9535903930664, -157.77340698242188, 9.793503761291504, -0.07397071272134781, 0.26644429564476013, 1.0779623985290527, -2.1255462169647217, 0.42011186480522156, 
288, 2980985444, 13.947858810424805, -87.95378112792969, -157.79400634765625, 9.828644752502441, -0.0907169058918953, 0.23316045105457306, 1.108494520187378, -2.2765419483184814, 0.44452226161956787, 
289, 2980993777, 13.900726318359375, -87.95646667480469, -157.7436065673828, 9.769145965576172, -0.10314667969942093, 0.2283596694469452, 1.0635926723480225, -2.292550802230835, 0.5038960576057434, 
290, 2981002110, 13.939244270324707, -87.9562759399414, -157.77748107910156, 9.817062377929688, -0.08368410170078278, 0.264322429895401, 1.1237092018127441, -2.2363786697387695, 0.37669575214385986, 
291, 2981010443, 13.940072059631348, -87.95828247070312, -157.77427673339844, 9.81101131439209, -0.07800953835248947, 0.2070925086736679, 1.1408195495605469, -2.2854299545288086, 0.2956523001194, 
292, 2981018776, 13.983141899108887, -87.95799255371094, -157.8137969970703, 9.828103065490723, -0.09255044907331467, 0.2309407889842987, 1.0135936737060547, -2.226670980453491, 0.3489042818546295, 
293, 2981027109, 13.95748519897461, -87.96039581298828, -157.78517150878906, 9.827364921569824, -0.07598883658647537, 0.23101359605789185, 1.0196642875671387, -2.3218793869018555, 0.4179603159427643, 
294, 2981035442, 13.961504936218262, -87.96029663085938, -157.7854461669922, 9.849610328674316, -0.10115713626146317, 0.2372041493654251, 1.0146182775497437, -2.1939358711242676, 0.5138599872589111, 
295, 2981043775, 13.895194053649902, -87.96163940429688, -157.71510314941406, 9.796650886535645, -0.08738593757152557, 0.2420862317085266, 1.1467877626419067, -2.1286966800689697, 0.5540231466293335, 
296, 2981052108, 13.891921997070312, -87.96231079101562, -157.70721435546875, 9.813515663146973, -0.052093081176280975, 0.22727544605731964, 1.123197078704834, -2.3100199699401855, 0.5790226459503174, 
297, 2981060441, 13.823175430297852, -87.96548461914062, -157.6342010498047, 9.813798904418945, -0.07824628800153732, 0.2219618260860443, 1.1653069257736206, -2.3187029361724854, 0.6100926995277405, 
298, 2981068774, 13.817239761352539, -87.96683502197266, -157.62271118164062, 9.819530487060547, -0.09635396301746368, 0.18950726091861725, 1.2433022260665894, -2.3709816932678223, 0.6098877787590027, 
299, 2981077107, 13.764639854431152, -87.96904754638672, -157.56561279296875, 9.810770988464355, -0.056088998913764954, 0.19231081008911133, 1.1948399543762207, -2.276695728302002, 0.5319435596466064, 
300, 2981085440, 13.742594718933105, -87.96875762939453, -157.53868103027344, 9.833015441894531, -0.08589290827512741, 0.24587339162826538, 1.1630016565322876, -2.1651203632354736, 0.6251794695854187, 
301, 2981093773, 13.683448791503906, -87.97049713134766, -157.4750213623047, 9.812162399291992, -0.09803355485200882, 0.2288273721933365, 1.1882059574127197, -2.159843683242798, 0.5314825773239136, 
302, 2981102106, 13.700342178344727, -87.96952819824219, -157.4871368408203, 9.824029922485352, -0.09374168515205383, 0.2801600694656372, 1.150194525718689, -2.120551347732544, 0.44385629892349243, 
303, 2981110439, 13.643425941467285, -87.97049713134766, -157.42666625976562, 9.815744400024414, -0.09084245562553406, 0.20094680786132812, 1.0813690423965454, -2.1142759323120117, 0.5063549876213074, 
304, 2981118772, 13.652779579162598, -87.9697265625, -157.4316864013672, 9.808189392089844, -0.09212832152843475, 0.2014486938714981, 1.0980437994003296, -2.1285431385040283, 0.4779232442378998, 
305, 2981127105, 13.60093879699707, -87.97020721435547, -157.37515258789062, 9.826033592224121, -0.09883634001016617, 0.23129652440547943, 1.203702449798584, -2.040839672088623, 0.47172456979751587, 
306, 2981135438, 13.631757736206055, -87.9691390991211, -157.40191650390625, 9.82520580291748, -0.08139412850141525, 0.26777225732803345, 1.0619021654129028, -2.1181180477142334, 0.3794620931148529, 
307, 2981143771, 13.583016395568848, -87.97000885009766, -157.3502655029297, 9.816511154174805, -0.07086281478404999, 0.2026159018278122, 1.0190495252609253, -2.1217808723449707, 0.47126346826553345, 
308, 2981152104, 13.561574935913086, -87.96943664550781, -157.32395935058594, 9.7858247756958, -0.09246020764112473, 0.22325728833675385, 1.1481451988220215, -2.1093578338623047, 0.6105537414550781, 
309, 2981160437, 13.488205909729004, -87.9714584350586, -157.2463836669922, 9.78097152709961, -0.08179538697004318, 0.23356720805168152, 1.1662546396255493, -2.1750071048736572, 0.596440315246582, 
310, 2981168770, 13.430502891540527, -87.97135925292969, -157.18321228027344, 9.88520336151123, -0.08907308429479599, 0.2171034961938858, 1.222324013710022, -2.178541898727417, 0.7873687148094177, 
311, 2981177103, 13.333294868469238, -87.97135925292969, -157.08157348632812, 9.795305252075195, -0.10099371522665024, 0.24752205610275269, 1.159671664237976, -1.9512667655944824, 0.6487700939178467, 
312, 2981185436, 13.323897361755371, -87.9716567993164, -157.06735229492188, 9.77475357055664, -0.09138038754463196, 0.2421187460422516, 1.1701735258102417, -2.254718780517578, 0.5917784571647644, 
313, 2981193769, 13.248870849609375, -87.97445678710938, -156.98794555664062, 9.771685600280762, -0.10347197949886322, 0.24931609630584717, 1.1670998334884644, -2.3025918006896973, 0.6336833834648132, 
314, 2981202102, 13.239442825317383, -87.97415924072266, -156.97360229492188, 9.885777473449707, -0.07121279835700989, 0.26324671506881714, 1.1710954904556274, -2.1725738048553467, 0.5738741159439087, 
315, 2981210435, 13.181930541992188, -87.97686767578125, -156.9122314453125, 9.784558296203613, -0.10333263874053955, 0.21830709278583527, 1.098658561706543, -2.2405025959014893, 0.5404987335205078, 
316, 2981218768, 13.196858406066895, -87.97715759277344, -156.92242431640625, 9.749039649963379, -0.09534969925880432, 0.23321618139743805, 1.1493747234344482, -2.282407522201538, 0.4921391010284424, 
317, 2981227101, 13.14626407623291, -87.98015594482422, -156.86814880371094, 9.77527141571045, -0.08607614040374756, 0.24514327943325043, 1.0806773900985718, -2.350310802459717, 0.5359394550323486, 
318, 2981235434, 13.146220207214355, -87.97987365722656, -156.863525390625, 9.893464088439941, -0.09426320344209671, 0.1905805468559265, 1.131829023361206, -2.212301731109619, 0.5400377511978149, 
319, 2981243767, 13.088033676147461, -87.9817123413086, -156.80140686035156, 9.8073148727417, -0.05752013623714447, 0.23242919147014618, 1.1146419048309326, -2.222700834274292, 0.5400377511978149, 
320, 2981252100, 13.110040664672852, -87.98258209228516, -156.81858825683594, 9.743972778320312, -0.10839632153511047, 0.2632337510585785, 1.1535755395889282, -2.340398073196411, 0.4755154252052307, 
321, 2981260433, 13.074448585510254, -87.98666381835938, -156.77813720703125, 9.852779388427734, -0.0788378193974495, 0.2592776417732239, 1.223476767539978, -2.4719274044036865, 0.5040754079818726, 
322, 2981268766, 13.10304069519043, -87.98783111572266, -156.80191040039062, 9.866236686706543, -0.09360644966363907, 0.21671633422374725, 1.1682525873184204, -2.3991830348968506, 0.46168380975723267, 
323, 2981277099, 13.068591117858887, -87.99075317382812, -156.76254272460938, 9.745112419128418, -0.07043839991092682, 0.18015581369400024, 1.2236560583114624, -2.3521296977996826, 0.4721856713294983, 
324, 2981285432, 13.040616989135742, -87.9926986694336, -156.7289581298828, 9.801958084106445, -0.07257905602455139, 0.2130333036184311, 1.2418934106826782, -2.4028971195220947, 0.7079133987426758, 
325, 2981293765, 12.975773811340332, -87.99581909179688, -156.65957641601562, 9.844106674194336, -0.07108055055141449, 0.23089997470378876, 1.1946096420288086, -2.338784694671631, 0.5990017056465149, 
326, 2981302098, 12.96217155456543, -87.99601745605469, -156.6414031982422, 9.799732208251953, -0.07401624321937561, 0.23610980808734894, 1.1266037225723267, -2.231998920440674, 0.6020241975784302, 
327, 2981310431, 12.877825736999512, -87.9980697631836, -156.55264282226562, 9.777725219726562, -0.10080408304929733, 0.21284990012645721, 1.1813926696777344, -2.2329721450805664, 0.6565057039260864, 
328, 2981318764, 12.839982986450195, -87.99787902832031, -156.5092315673828, 9.80460262298584, -0.0896318107843399, 0.19150611758232117, 1.2435839176177979, -2.1773126125335693, 0.6989485025405884, 
329, 2981327097, 12.755472183227539, -87.9985580444336, -156.42031860351562, 9.848444938659668, -0.10220443457365036, 0.25706085562705994, 1.160158395767212, -2.055619239807129, 0.6172903180122375, 
330, 2981335430, 12.747312545776367, -87.99797058105469, -156.4075469970703, 9.796277046203613, -0.0803510919213295, 0.22762519121170044, 1.1359785795211792, -2.1301052570343018, 0.5561234951019287, 
331, 2981343763, 12.678356170654297, -88.00061798095703, -156.3343505859375, 9.817728996276855, -0.06800957769155502, 0.23644894361495972, 1.1437908411026, -2.2745440006256104, 0.5997701287269592, 
332, 2981352096, 12.687959671020508, -87.9997329711914, -156.3393096923828, 9.790271759033203, -0.1143806129693985, 0.2031567245721817, 1.1378227472305298, -2.1517751216888428, 0.4839938282966614, 
333, 2981360429, 12.650656700134277, -88.00188446044922, -156.29869079589844, 9.85723876953125, -0.08614995330572128, 0.2545669376850128, 1.0453040599822998, -2.225313425064087, 0.44897907972335815, 
334, 2981368762, 12.654353141784668, -88.00159454345703, -156.29823303222656, 9.754262924194336, -0.07173755019903183, 0.23998135328292847, 1.0666663646697998, -2.192629814147949, 0.5173947811126709, 
335, 2981377095, 12.590410232543945, -88.00315856933594, -156.23092651367188, 9.808398246765137, -0.07802645117044449, 0.20515048503875732, 1.0748629570007324, -2.2222652435302734, 0.5638845562934875, 
336, 2981385428, 12.586017608642578, -88.00394439697266, -156.22219848632812, 9.833147048950195, -0.07586105167865753, 0.2490765005350113, 1.0802931785583496, -2.285046100616455, 0.5731569528579712, 
337, 2981393761, 12.51390266418457, -88.005126953125, -156.14566040039062, 9.810279846191406, -0.08913637697696686, 0.21504399180412292, 1.1864899396896362, -2.1250596046447754, 0.5790994763374329, 
338, 2981402094, 12.527796745300293, -88.00473022460938, -156.15428161621094, 9.81917953491211, -0.06913402676582336, 0.2199171930551529, 1.2036769390106201, -2.1899914741516113, 0.47864046692848206, 
339, 2981410427, 12.453676223754883, -88.00727844238281, -156.0764617919922, 9.797933578491211, -0.10086902230978012, 0.2240334004163742, 1.0838278532028198, -2.249262809753418, 0.6120649576187134, 
340, 2981418760, 12.421793937683105, -88.00767517089844, -156.0399169921875, 9.8193359375, -0.07776094228029251, 0.22660788893699646, 1.1320083141326904, -2.248417615890503, 0.6831700801849365, 
341, 2981427093, 12.35704231262207, -88.0101318359375, -155.97195434570312, 9.793769836425781, -0.07027310132980347, 0.24629367887973785, 1.0224050283432007, -2.259354829788208, 0.574207067489624, 
342, 2981435426, 12.347695350646973, -88.00983428955078, -155.95823669433594, 9.808890342712402, -0.08001701533794403, 0.19686833024024963, 1.099836826324463, -2.2011590003967285, 0.5759744644165039, 
343, 2981443759, 12.252684593200684, -88.01160430908203, -155.85916137695312, 9.79630184173584, -0.0989142432808876, 0.2194480299949646, 1.1495285034179688, -2.2375571727752686, 0.7021758556365967, 
344, 2981452092, 12.20666790008545, -88.01160430908203, -155.80897521972656, 9.827068328857422, -0.09457134455442429, 0.2293516844511032, 1.0618510246276855, -2.143681049346924, 0.7171857953071594, 
345, 2981460425, 12.156253814697266, -88.013671875, -155.7550048828125, 9.802811622619629, -0.08132835477590561, 0.2528555989265442, 1.067742109298706, -2.251312017440796, 0.5122718811035156, 
346, 2981468758, 12.168503761291504, -88.01318359375, -155.7626953125, 9.80616283416748, -0.0990176871418953, 0.22594891488552094, 1.1168959140777588, -2.16611909866333, 0.4771292209625244, 
347, 2981477091, 12.126900672912598, -88.01583862304688, -155.71690368652344, 9.832576751708984, -0.09836666285991669, 0.2281731516122818, 1.1415879726409912, -2.2880940437316895, 0.48465973138809204, 
348, 2981485424, 12.1384859085083, -88.01436614990234, -155.72463989257812, 9.818530082702637, -0.0978551134467125, 0.21490883827209473, 1.0458165407180786, -2.079876184463501, 0.4591735601425171, 
349, 2981493757, 12.091859817504883, -88.01594543457031, -155.673583984375, 9.820341110229492, -0.07292592525482178, 0.23541685938835144, 1.1618232727050781, -2.202465772628784, 0.49003875255584717, 
350, 2981502090, 12.123517990112305, -88.01554870605469, -155.70050048828125, 9.78052806854248, -0.07331961393356323, 0.2333284616470337, 1.1477609872817993, -2.175006866455078, 0.3974432349205017, 
351, 2981510423, 12.042110443115234, -88.01673126220703, -155.61502075195312, 9.846330642700195, -0.06256601214408875, 0.21908777952194214, 1.13620924949646, -2.134050130844116, 0.6219520568847656, 
352, 2981518756, 12.040746688842773, -88.01673126220703, -155.60877990722656, 9.770359992980957, -0.08549772202968597, 0.21251799166202545, 1.1762185096740723, -2.242039680480957, 0.5531265735626221, 
353, 2981527089, 11.949639320373535, -88.01909637451172, -155.51283264160156, 9.791351318359375, -0.08396031707525253, 0.26913610100746155, 1.2029597759246826, -2.2343552112579346, 0.6863461136817932, 
354, 2981535422, 11.928886413574219, -88.0186996459961, -155.48745727539062, 9.822482109069824, -0.1000191867351532, 0.25521472096443176, 1.1376689672470093, -2.1575381755828857, 0.6165986061096191, 
355, 2981543755, 11.844090461730957, -88.02088165283203, -155.39772033691406, 9.835798263549805, -0.08615857362747192, 0.20434272289276123, 1.236463189125061, -2.2378132343292236, 0.6612699031829834, 
356, 2981552088, 11.816864013671875, -88.02117156982422, -155.36557006835938, 9.811723709106445, -0.08062990754842758, 0.21380580961704254, 1.185977578163147, -2.2782070636749268, 0.6709265112876892, 
357, 2981560421, 11.727570533752441, -88.02375030517578, -155.27243041992188, 9.800346374511719, -0.09363459050655365, 0.23298442363739014, 1.095328688621521, -2.238812208175659, 0.6734879016876221, 
358, 2981568754, 11.741415023803711, -88.02335357666016, -155.281005859375, 9.799214363098145, -0.1020650863647461, 0.2104889154434204, 1.2092609405517578, -2.205103874206543, 0.4834558963775635, 
359, 2981577087, 11.687973022460938, -88.02523803710938, -155.22360229492188, 9.831634521484375, -0.10738994926214218, 0.20279435813426971, 1.1165372133255005, -2.210841655731201, 0.5179582238197327, 
360, 2981585420, 11.708654403686523, -88.02454376220703, -155.23959350585938, 9.805991172790527, -0.09548363834619522, 0.22284184396266937, 1.135901689529419, -2.15226149559021, 0.43998849391937256, 
361, 2981593753, 11.644646644592285, -88.02603149414062, -155.17100524902344, 9.827584266662598, -0.09174100309610367, 0.22179442644119263, 1.1976321935653687, -2.196779489517212, 0.5628344416618347, 
362, 2981602086, 11.632525444030762, -88.02543640136719, -155.15382385253906, 9.796937942504883, -0.08335921913385391, 0.21352753043174744, 1.1784982681274414, -2.156949520111084, 0.5818914175033569, 
363, 2981610419, 11.557561874389648, -88.02682495117188, -155.07510375976562, 9.828170776367188, -0.09280774742364883, 0.2248319387435913, 1.0832901000976562, -2.1198086738586426, 0.5903953313827515, 
364, 2981618752, 11.55520248413086, -88.02603149414062, -155.06781005859375, 9.766173362731934, -0.09704870730638504, 0.20066487789154053, 1.1643078327178955, -2.1462936401367188, 0.5360163450241089, 
365, 2981627085, 11.50683879852295, -88.02840423583984, -155.0151824951172, 9.840972900390625, -0.0912565141916275, 0.22345119714736938, 1.1634113788604736, -2.304743528366089, 0.5193414688110352, 
366, 2981635418, 11.506271362304688, -88.02742004394531, -155.00955200195312, 9.796504974365234, -0.06636372208595276, 0.21546457707881927, 1.1737594604492188, -2.0944244861602783, 0.5198280811309814, 
367, 2981643751, 11.402042388916016, -88.02880096435547, -154.9016876220703, 9.803421974182129, -0.09546159952878952, 0.23541012406349182, 1.0767072439193726, -2.112534284591675, 0.7130874991416931, 
368, 2981652084, 11.377503395080566, -88.02920532226562, -154.8727569580078, 9.803265571594238, -0.0884077399969101, 0.23955138027668, 1.0968400239944458, -2.2213692665100098, 0.6426227688789368, 
369, 2981660417, 11.333250045776367, -88.0302963256836, -154.82489013671875, 9.824252128601074, -0.10085081309080124, 0.2255137711763382, 1.097480297088623, -2.222982406616211, 0.48309725522994995, 
370, 2981668750, 11.325577735900879, -88.02960205078125, -154.8133544921875, 9.784801483154297, -0.10057514160871506, 0.2016134411096573, 1.0369539260864258, -2.1521849632263184, 0.5571480393409729, 
371, 2981677083, 11.26711368560791, -88.03099060058594, -154.75115966796875, 9.837812423706055, -0.08331770449876785, 0.21204553544521332, 1.0841608047485352, -2.1231894493103027, 0.5220308899879456, 
372, 2981685416, 11.234814643859863, -88.03128814697266, -154.7146759033203, 9.784762382507324, -0.07472315430641174, 0.23762115836143494, 1.072839379310608, -2.2244937419891357, 0.6768177151679993, 
373, 2981693749, 11.181406021118164, -88.03268432617188, -154.6575927734375, 9.844426155090332, -0.0933893471956253, 0.24999606609344482, 1.093023419380188, -2.2300267219543457, 0.5216211080551147, 
374, 2981702082, 11.165345191955566, -88.03199005126953, -154.63746643066406, 9.799829483032227, -0.09274854511022568, 0.20475272834300995, 1.046431064605713, -2.1039018630981445, 0.581993818283081, 
375, 2981710415, 11.108809471130371, -88.0329818725586, -154.57806396484375, 9.825721740722656, -0.09081356227397919, 0.23763898015022278, 0.9836507439613342, -2.1137893199920654, 0.511016845703125, 
376, 2981718748, 11.101917266845703, -88.03248596191406, -154.56678771972656, 9.802921295166016, -0.10062600672245026, 0.22496941685676575, 1.102372646331787, -2.173316717147827, 0.5592484474182129, 
377, 2981727081, 11.05677604675293, -88.03388214111328, -154.51776123046875, 9.828794479370117, -0.08589782565832138, 0.21848884224891663, 1.1111327409744263, -2.2046430110931396, 0.48519769310951233, 
378, 2981735414, 11.072150230407715, -88.0331802368164, -154.52850341796875, 9.770700454711914, -0.09531037509441376, 0.23919856548309326, 1.127500057220459, -2.1520822048187256, 0.4627339541912079, 
379, 2981743747, 11.016345977783203, -88.03397369384766, -154.46800231933594, 9.827024459838867, -0.09540156275033951, 0.2081916332244873, 1.1951731443405151, -2.054722785949707, 0.5031532645225525, 
380, 2981752080, 11.028066635131836, -88.03337860107422, -154.47491455078125, 9.822612762451172, -0.10008420050144196, 0.22198636829853058, 1.1462242603302002, -2.1668875217437744, 0.4831997752189636, 
381, 2981760413, 10.989583015441895, -88.03466796875, -154.4325408935547, 9.801115989685059, -0.1020907461643219, 0.2529410719871521, 1.097352147102356, -2.1790287494659424, 0.45256507396698, 
382, 2981768746, 11.02931022644043, -88.03497314453125, -154.4683837890625, 9.803184509277344, -0.08770879358053207, 0.24775268137454987, 1.0492743253707886, -2.2934985160827637, 0.386890172958374, 
383, 2981777079, 10.972322463989258, -88.03546905517578, -154.4082794189453, 9.802861213684082, -0.10069731622934341, 0.24557368457317352, 1.0206888914108276, -2.09488582611084, 0.5114266276359558, 
384, 2981785412, 10.961180686950684, -88.03536987304688, -154.39306640625, 9.833559036254883, -0.07151801139116287, 0.2301245629787445, 1.0531678199768066, -2.2170658111572266, 0.5844528079032898, 
385, 2981793745, 10.922118186950684, -88.03666687011719, -154.3504638671875, 9.787273406982422, -0.09580233693122864, 0.22018589079380035, 1.0681777000427246, -2.1702942848205566, 0.4523090124130249, 
386, 2981802078, 10.919471740722656, -88.0369644165039, -154.3436737060547, 9.835968017578125, -0.07775018364191055, 0.22514641284942627, 1.0698680877685547, -2.256767749786377, 0.5569686889648438, 
387, 2981810411, 10.873472213745117, -88.03885650634766, -154.29335021972656, 9.804984092712402, -0.07858840376138687, 0.2540043592453003, 1.1468133926391602, -2.2474186420440674, 0.5002588629722595, 
388, 2981818744, 10.883480072021484, -88.03985595703125, -154.29833984375, 9.801789283752441, -0.06594981253147125, 0.21167749166488647, 1.1753475666046143, -2.363271951675415, 0.5297408103942871, 
389, 2981827077, 10.82361888885498, -88.04185485839844, -154.23471069335938, 9.818347930908203, -0.09812192618846893, 0.21750853955745697, 1.087132215499878, -2.229693651199341, 0.5508213639259338, 
390, 2981835410, 10.832091331481934, -88.04216003417969, -154.23826599121094, 9.821683883666992, -0.08780483901500702, 0.2351488322019577, 1.1697381734848022, -2.2736477851867676, 0.5180351734161377, 
391, 2981843743, 10.776670455932617, -88.04535675048828, -154.17941284179688, 9.819360733032227, -0.08767092972993851, 0.199184849858284, 1.0542434453964233, -2.381150722503662, 0.5603242516517639, 
392, 2981852076, 10.77580738067627, -88.04515838623047, -154.1750030517578, 9.800750732421875, -0.08023804426193237, 0.24567820131778717, 1.0055253505706787, -2.2072811126708984, 0.5372714400291443, 
393, 2981860409, 10.716863632202148, -88.04655456542969, -154.11155700683594, 9.843993186950684, -0.08225879073143005, 0.22320851683616638, 1.1825706958770752, -2.1887106895446777, 0.5461595058441162, 
394, 2981868742, 10.726872444152832, -88.0455551147461, -154.1171112060547, 9.810175895690918, -0.08175505697727203, 0.23024185001850128, 1.1079565286636353, -2.1239068508148193, 0.47974181175231934, 
395, 2981877075, 10.674778938293457, -88.04796600341797, -154.0607147216797, 9.799893379211426, -0.07674529403448105, 0.21171429753303528, 1.141664981842041, -2.251286506652832, 0.5260011553764343, 
396, 2981885408, 10.667466163635254, -88.04796600341797, -154.04844665527344, 9.850139617919922, -0.09118673950433731, 0.23303845524787903, 1.170250415802002, -2.220651626586914, 0.5724653005599976, 
397, 2981893741, 10.594436645507812, -88.05067443847656, -153.9710693359375, 9.779932975769043, -0.10688077658414841, 0.25205865502357483, 1.1599279642105103, -2.353205442428589, 0.6332992315292358, 
398, 2981902074, 10.63245677947998, -88.05157470703125, -154.00440979003906, 9.829633712768555, -0.09086132049560547, 0.23917628824710846, 1.1269111633300781, -2.336402416229248, 0.4042567014694214, 
399, 2981910407, 10.566363334655762, -88.05348205566406, -153.93453979492188, 9.816235542297363, -0.0966658890247345, 0.24852804839611053, 1.0994271039962769, -2.2465732097625732, 0.5828903913497925, 
400, 2981918740, 10.57608699798584, -88.05298614501953, -153.94007873535156, 9.775108337402344, -0.09602481871843338, 0.23730337619781494, 1.0859283208847046, -2.2151448726654053, 0.4987476170063019, 
401, 2981927073, 10.520638465881348, -88.05479431152344, -153.880859375, 9.837890625, -0.10960212349891663, 0.22281897068023682, 1.0891300439834595, -2.212608814239502, 0.5313289165496826, 
402, 2981935406, 10.528192520141602, -88.05479431152344, -153.88421630859375, 9.816546440124512, -0.09537739306688309, 0.2038128525018692, 1.0590077638626099, -2.2205493450164795, 0.5071746706962585, 
403, 2981943739, 10.460783004760742, -88.05670166015625, -153.8134002685547, 9.8135404586792, -0.09734172374010086, 0.20960287749767303, 1.0588539838790894, -2.2376081943511963, 0.5842735171318054, 
404, 2981952072, 10.464366912841797, -88.05630493164062, -153.81288146972656, 9.832052230834961, -0.09170360863208771, 0.2459152191877365, 1.0689716339111328, -2.18865966796875, 0.5174460411071777, 
405, 2981960405, 10.419394493103027, -88.05781555175781, -153.76405334472656, 9.812348365783691, -0.0886673778295517, 0.22077056765556335, 1.1178691387176514, -2.205333948135376, 0.4896032214164734, 
406, 2981968738, 10.428129196166992, -88.05801391601562, -153.7689208984375, 9.801923751831055, -0.0938626229763031, 0.2434442937374115, 1.0344949960708618, -2.2413482666015625, 0.5052792429924011, 
407, 2981977071, 10.390007019042969, -88.06022644042969, -153.72702026367188, 9.80630874633789, -0.07863080501556396, 0.23755551874637604, 1.0770658254623413, -2.2851481437683105, 0.47213438153266907, 
408, 2981985404, 10.412191390991211, -88.06043243408203, -153.744873046875, 9.822311401367188, -0.07975437492132187, 0.25169453024864197, 1.0967375040054321, -2.2488784790039062, 0.4534872770309448, 
409, 2981993737, 10.371101379394531, -88.06245422363281, -153.7008819580078, 9.794004440307617, -0.0830526202917099, 0.23351822793483734, 0.9932047128677368, -2.272700071334839, 0.4801260828971863, 
410, 2982002070, 10.406161308288574, -88.06195068359375, -153.73126220703125, 9.814067840576172, -0.08189042657613754, 0.23287345468997955, 1.1396926641464233, -2.2092278003692627, 0.3949587047100067, 
411, 2982010403, 10.375219345092773, -88.06326293945312, -153.69618225097656, 9.793521881103516, -0.07620489597320557, 0.20289112627506256, 1.1139501333236694, -2.1688084602355957, 0.4246712028980255, 
412, 2982018736, 10.395770072937012, -88.0623550415039, -153.71177673339844, 9.817540168762207, -0.09209670126438141, 0.26599130034446716, 1.1756550073623657, -2.145371437072754, 0.4437025785446167, 
413, 2982027069, 10.339178085327148, -88.06488037109375, -153.6514129638672, 9.838111877441406, -0.08417130261659622, 0.22648583352565765, 1.1060611009597778, -2.3803820610046387, 0.5698015093803406, 
414, 2982035402, 10.344196319580078, -88.06427001953125, -153.65199279785156, 9.794029235839844, -0.09611901640892029, 0.2522863745689392, 1.1151542663574219, -2.2051808834075928, 0.5163445472717285, 
415, 2982043735, 10.27712345123291, -88.06751251220703, -153.5802001953125, 9.811595916748047, -0.08371633291244507, 0.21981926262378693, 1.1913564205169678, -2.341012954711914, 0.6075568199157715, 
416, 2982052068, 10.244725227355957, -88.068115234375, -153.54237365722656, 9.82127857208252, -0.08673795312643051, 0.22286738455295563, 1.2245526313781738, -2.3025918006896973, 0.6923144459724426, 
417, 2982060401, 10.179415702819824, -88.0706558227539, -153.47381591796875, 9.813733100891113, -0.10493601858615875, 0.2066853791475296, 1.0226099491119385, -2.2499544620513916, 0.5775370001792908, 
418, 2982068734, 10.176506042480469, -88.07096099853516, -153.4676055908203, 9.79514217376709, -0.07469407469034195, 0.2369454801082611, 0.9688966870307922, -2.2773358821868896, 0.5575066208839417, 
419, 2982077067, 10.143197059631348, -88.07288360595703, -153.43080139160156, 9.811962127685547, -0.08978287130594254, 0.21983543038368225, 1.0495048761367798, -2.2837910652160645, 0.4534359872341156, 
420, 2982085400, 10.143610000610352, -88.07257843017578, -153.42709350585938, 9.802989959716797, -0.08116500824689865, 0.25302717089653015, 1.0767072439193726, -2.2029011249542236, 0.5350685715675354, 
421, 2982093733, 10.108230590820312, -88.07481384277344, -153.388427734375, 9.81027603149414, -0.10304989665746689, 0.22700518369674683, 1.0219184160232544, -2.2968029975891113, 0.4636048674583435, 
422, 2982102066, 10.135480880737305, -88.07553100585938, -153.41127014160156, 9.829970359802246, -0.07975014299154282, 0.19195981323719025, 1.1078540086746216, -2.282484531402588, 0.43870779871940613, 
423, 2982110399, 10.08095932006836, -88.07796478271484, -153.35316467285156, 9.80346393585205, -0.08083482086658478, 0.21945129334926605, 1.0648478269577026, -2.3331494331359863, 0.5519739985466003, 
424, 2982118732, 10.096939086914062, -88.0788803100586, -153.36529541015625, 9.803078651428223, -0.07915891706943512, 0.21816731989383698, 1.0438697338104248, -2.3421401977539062, 0.49400895833969116, 
425, 2982127065, 10.063061714172363, -88.08051300048828, -153.3278350830078, 9.815193176269531, -0.0824831873178482, 0.24700799584388733, 1.0772451162338257, -2.3040518760681152, 0.4610690474510193, 
426, 2982135398, 10.061760902404785, -88.08061981201172, -153.3224334716797, 9.806918144226074, -0.08672904223203659, 0.20485514402389526, 1.0620044469833374, -2.2239303588867188, 0.5450324416160583, 
427, 2982143731, 10.003912925720215, -88.08377838134766, -153.26048278808594, 9.79227066040039, -0.05100179836153984, 0.22488291561603546, 1.128217339515686, -2.379459857940674, 0.5733106732368469, 
428, 2982152064, 9.990499496459961, -88.08439636230469, -153.24273681640625, 9.834158897399902, -0.07013419270515442, 0.2836214005947113, 1.0942528247833252, -2.3180880546569824, 0.6114245653152466, 
429, 2982160397, 9.913578987121582, -88.08746337890625, -153.1623992919922, 9.802176475524902, -0.09903565794229507, 0.2220819741487503, 1.0400277376174927, -2.354562759399414, 0.6455684304237366, 
430, 2982168730, 9.917512893676758, -88.08797454833984, -153.16168212890625, 9.81969165802002, -0.09539125859737396, 0.20418040454387665, 1.1334682703018188, -2.299492359161377, 0.537783682346344, 
431, 2982177063, 9.821187019348145, -88.09033203125, -153.06076049804688, 9.822404861450195, -0.06553255766630173, 0.22645744681358337, 1.1560344696044922, -2.24257755279541, 0.7062484622001648, 
432, 2982185396, 9.793709754943848, -88.08961486816406, -153.02857971191406, 9.78447437286377, -0.08990659564733505, 0.2340620458126068, 1.1509627103805542, -2.1403768062591553, 0.6398051381111145, 
433, 2982193729, 9.699559211730957, -88.09074401855469, -152.9306640625, 9.84890365600586, -0.1032857745885849, 0.2665367126464844, 1.0903339385986328, -2.1780295372009277, 0.685552179813385, 
434, 2982202062, 9.70522689819336, -88.09074401855469, -152.93238830566406, 9.818694114685059, -0.07844705879688263, 0.22487565875053406, 1.0632596015930176, -2.244959831237793, 0.5195463299751282, 
435, 2982210395, 9.65310001373291, -88.09268951416016, -152.87567138671875, 9.79691219329834, -0.07842876017093658, 0.21605654060840607, 1.160158395767212, -2.223315715789795, 0.5249253511428833, 
436, 2982218728, 9.633393287658691, -88.0929946899414, -152.8517608642578, 9.832669258117676, -0.08490406721830368, 0.21424153447151184, 1.0665384531021118, -2.2216248512268066, 0.6188527941703796, 
437, 2982227061, 9.551158905029297, -88.093505859375, -152.76560974121094, 9.81024169921875, -0.09065411984920502, 0.2332715541124344, 1.1012457609176636, -2.0571048259735107, 0.615855872631073, 
438, 2982235394, 9.55397891998291, -88.0934066772461, -152.7639923095703, 9.810077667236328, -0.11051924526691437, 0.2050340324640274, 1.1249388456344604, -2.2672698497772217, 0.5367335081100464, 
439, 2982243727, 9.49051570892334, -88.09566497802734, -152.69644165039062, 9.801815032958984, -0.07568580657243729, 0.24218399822711945, 1.0934333801269531, -2.220754384994507, 0.5694684982299805, 
440, 2982252060, 9.461934089660645, -88.09525299072266, -152.6630096435547, 9.826081275939941, -0.08432608842849731, 0.23707255721092224, 1.156213641166687, -2.1671690940856934, 0.6481553912162781, 
441, 2982260393, 9.42424201965332, -88.09648895263672, -152.62228393554688, 9.817618370056152, -0.07666800916194916, 0.24188266694545746, 1.0100589990615845, -2.241194486618042, 0.4648343026638031, 
442, 2982268726, 9.422307968139648, -88.09587097167969, -152.61611938476562, 9.845026969909668, -0.08006730675697327, 0.23468181490898132, 1.0912816524505615, -2.161508321762085, 0.5366823077201843, 
443, 2982277059, 9.358280181884766, -88.09761810302734, -152.5477752685547, 9.771470069885254, -0.0792660191655159, 0.22703012824058533, 1.1383862495422363, -2.2148373126983643, 0.5715687870979309, 
444, 2982285392, 9.344773292541504, -88.09771728515625, -152.52960205078125, 9.80591106414795, -0.09333670884370804, 0.2305106520652771, 1.131137490272522, -2.211122989654541, 0.5941606163978577, 
445, 2982293725, 9.286495208740234, -88.09947204589844, -152.46676635742188, 9.825472831726074, -0.08908674865961075, 0.22735975682735443, 1.193047046661377, -2.2588939666748047, 0.5588129758834839, 
446, 2982302058, 9.269256591796875, -88.09906005859375, -152.4459991455078, 9.80179500579834, -0.09559574723243713, 0.24541082978248596, 1.0021440982818604, -2.177645444869995, 0.5981308221817017, 
447, 2982310391, 9.2330322265625, -88.10039520263672, -152.40603637695312, 9.793362617492676, -0.10260516405105591, 0.24956294894218445, 1.0698169469833374, -2.2072298526763916, 0.4562279284000397, 
448, 2982318724, 9.224804878234863, -88.10081481933594, -152.3934783935547, 9.824103355407715, -0.07471150904893875, 0.20452849566936493, 1.089949607849121, -2.2236995697021484, 0.5731056332588196, 
449, 2982327057, 9.183721542358398, -88.10132598876953, -152.34849548339844, 9.781420707702637, -0.1166454628109932, 0.2324925810098648, 1.1116962432861328, -2.1607658863067627, 0.46980351209640503, 
450, 2982335390, 9.216572761535645, -88.10173797607422, -152.37811279296875, 9.824495315551758, -0.0810340866446495, 0.20252291858196259, 0.9613919258117676, -2.2939341068267822, 0.4150402545928955, 
451, 2982343723, 9.17720890045166, -88.10246276855469, -152.33566284179688, 9.85954475402832, -0.0704403817653656, 0.2512912452220917, 1.0153865814208984, -2.134920835494995, 0.4562535583972931, 
452, 2982352056, 9.202749252319336, -88.10163116455078, -152.3563690185547, 9.790772438049316, -0.0774218887090683, 0.2444690614938736, 1.1614645719528198, -2.1907341480255127, 0.4341996908187866, 
453, 2982360389, 9.148977279663086, -88.10298156738281, -152.29891967773438, 9.812799453735352, -0.10039818286895752, 0.21951040625572205, 1.059391975402832, -2.1596388816833496, 0.5206220746040344, 
454, 2982368722, 9.149418830871582, -88.10235595703125, -152.2952117919922, 9.803601264953613, -0.08661841601133347, 0.20892766118049622, 1.066794514656067, -2.1541059017181396, 0.5262060761451721, 
455, 2982377055, 9.11478328704834, -88.1048355102539, -152.25682067871094, 9.815648078918457, -0.08390189707279205, 0.22927533090114594, 1.0855441093444824, -2.326361894607544, 0.4719806909561157, 
456, 2982385388, 9.111299514770508, -88.10494232177734, -152.24867248535156, 9.820416450500488, -0.07466307282447815, 0.23175565898418427, 1.1333916187286377, -2.2459588050842285, 0.5600681304931641, 
457, 2982393721, 9.068327903747559, -88.10638427734375, -152.20199584960938, 9.819831848144531, -0.09170409291982651, 0.22286340594291687, 1.0716099739074707, -2.188429117202759, 0.4809713065624237, 
458, 2982402054, 9.06218433380127, -88.10607147216797, -152.1910858154297, 9.785099029541016, -0.06407226622104645, 0.24007265269756317, 1.1446105241775513, -2.1862006187438965, 0.5602729320526123, 
459, 2982410387, 9.017598152160645, -88.10782623291016, -152.1425018310547, 9.81883430480957, -0.08086150139570236, 0.25817611813545227, 1.1230946779251099, -2.2881710529327393, 0.5074564218521118, 
460, 2982418720, 9.021932601928711, -88.10814666748047, -152.14320373535156, 9.772768020629883, -0.08909890800714493, 0.23750677704811096, 1.014106035232544, -2.2788727283477783, 0.5289467573165894, 
461, 2982427053, 8.971295356750488, -88.10958862304688, -152.08831787109375, 9.81567096710205, -0.08458052575588226, 0.19248220324516296, 1.1272696256637573, -2.199673652648926, 0.5181632041931152, 
462, 2982435386, 8.965943336486816, -88.1088638305664, -152.07872009277344, 9.792314529418945, -0.08464374393224716, 0.22662585973739624, 1.1011687517166138, -2.169269323348999, 0.5533571839332581, 
463, 2982443719, 8.89371109008789, -88.11125183105469, -152.00270080566406, 9.828994750976562, -0.09130443632602692, 0.19028735160827637, 1.0720198154449463, -2.2816648483276367, 0.6160095930099487, 
464, 2982452052, 8.893884658813477, -88.1113510131836, -151.9989776611328, 9.844910621643066, -0.08094409108161926, 0.24158267676830292, 1.039925217628479, -2.2456257343292236, 0.5407805442810059, 
465, 2982460385, 8.814483642578125, -88.11197662353516, -151.91531372070312, 9.822598457336426, -0.07422803342342377, 0.21984948217868805, 1.148042917251587, -2.111330270767212, 0.621491014957428, 
466, 2982468718, 8.7794771194458, -88.11145782470703, -151.875244140625, 9.782424926757812, -0.08334629982709885, 0.21000975370407104, 1.1836978197097778, -2.139813184738159, 0.6699274182319641, 
467, 2982477051, 8.70473575592041, -88.11373901367188, -151.79612731933594, 9.796439170837402, -0.09451262652873993, 0.22212406992912292, 1.1520898342132568, -2.257638692855835, 0.624590277671814, 
468, 2982485384, 8.679200172424316, -88.11394500732422, -151.76535034179688, 9.841590881347656, -0.0882239118218422, 0.25292861461639404, 1.2079031467437744, -2.2591240406036377, 0.6519462466239929, 
469, 2982493717, 8.604369163513184, -88.11477661132812, -151.6864776611328, 9.792139053344727, -0.07158400118350983, 0.19866308569908142, 1.1203280687332153, -2.137507677078247, 0.6049184799194336, 
470, 2982502050, 8.598477363586426, -88.11487579345703, -151.675537109375, 9.808156967163086, -0.09614012390375137, 0.23546908795833588, 1.159236192703247, -2.2188587188720703, 0.5649347305297852, 
471, 2982510383, 8.526073455810547, -88.11653900146484, -151.59837341308594, 9.800203323364258, -0.09081441164016724, 0.23838424682617188, 1.2215300798416138, -2.2615320682525635, 0.6180074214935303, 
472, 2982518716, 8.545141220092773, -88.1164321899414, -151.61329650878906, 9.815298080444336, -0.0836067870259285, 0.23861347138881683, 1.082624077796936, -2.240963935852051, 0.4664992690086365, 
473, 2982527049, 8.50432300567627, -88.11820220947266, -151.56857299804688, 9.846611022949219, -0.10150177031755447, 0.22430318593978882, 1.0954055786132812, -2.287914991378784, 0.49129384756088257, 
474, 2982535382, 8.495781898498535, -88.118408203125, -151.55560302734375, 9.778220176696777, -0.10746733844280243, 0.20492400228977203, 1.1028337478637695, -2.227951765060425, 0.5748987197875977, 
475, 2982543715, 8.440168380737305, -88.11975860595703, -151.4961395263672, 9.823095321655273, -0.09289661049842834, 0.23573800921440125, 1.0756826400756836, -2.168706178665161, 0.531943678855896, 
476, 2982552048, 8.43565559387207, -88.11975860595703, -151.487060546875, 9.845547676086426, -0.06728480011224747, 0.23745912313461304, 1.1203539371490479, -2.2405285835266113, 0.5611438751220703, 
477, 2982560381, 8.366301536560059, -88.12122344970703, -151.41360473632812, 9.792563438415527, -0.0983743891119957, 0.23791946470737457, 1.1217881441116333, -2.2110719680786133, 0.5966707468032837, 
478, 2982568714, 8.357763290405273, -88.12205505371094, -151.4005584716797, 9.807577133178711, -0.06861437857151031, 0.21312683820724487, 1.112771987915039, -2.312196969985962, 0.5864506959915161, 
479, 2982577047, 8.315436363220215, -88.12413787841797, -151.35482788085938, 9.792933464050293, -0.09131260961294174, 0.20804335176944733, 1.0566768646240234, -2.326566696166992, 0.5051255226135254, 
480, 2982585380, 8.306412696838379, -88.12445068359375, -151.3413848876953, 9.79966926574707, -0.07117393612861633, 0.2492314577102661, 1.106163501739502, -2.2659120559692383, 0.5820194482803345, 
481, 2982593713, 8.23696517944336, -88.12633514404297, -151.26866149902344, 9.83083724975586, -0.07735306024551392, 0.2569955587387085, 1.0101613998413086, -2.2360713481903076, 0.5958511233329773, 
482, 2982602046, 8.218127250671387, -88.12716674804688, -151.24447631835938, 9.827613830566406, -0.09546452760696411, 0.2009555995464325, 1.2175599336624146, -2.3056654930114746, 0.6303279399871826, 
483, 2982610379, 8.14923095703125, -88.12895202636719, -151.17144775390625, 9.802206039428711, -0.06926175951957703, 0.2281867414712906, 1.124605655670166, -2.2479052543640137, 0.5980027318000793, 
484, 2982618712, 8.13317584991455, -88.12895202636719, -151.15179443359375, 9.797712326049805, -0.10371603071689606, 0.26407065987586975, 1.0043469667434692, -2.2242379188537598, 0.6006410121917725, 
485, 2982627045, 8.07530403137207, -88.13019561767578, -151.0901641845703, 9.832742691040039, -0.08683134615421295, 0.22534418106079102, 1.0845962762832642, -2.209970474243164, 0.5490026473999023, 
486, 2982635378, 8.058979034423828, -88.13103485107422, -151.06939697265625, 9.804230690002441, -0.07086449861526489, 0.2264356017112732, 1.0985816717147827, -2.3001837730407715, 0.6147031784057617, 
487, 2982643711, 8.013066291809082, -88.13282012939453, -151.01885986328125, 9.814087867736816, -0.08619704097509384, 0.2375255674123764, 1.202140212059021, -2.2759015560150146, 0.5161140561103821, 
488, 2982652044, 8.00883960723877, -88.13156127929688, -151.00938415527344, 9.821430206298828, -0.09442846477031708, 0.2081129103899002, 1.1929446458816528, -2.098600149154663, 0.5422917604446411, 
489, 2982660377, 7.944724082946777, -88.13260650634766, -150.94091796875, 9.837420463562012, -0.08094312995672226, 0.2311827689409256, 1.1754499673843384, -2.1956264972686768, 0.5748986601829529, 
490, 2982668710, 7.908992767333984, -88.13240051269531, -150.9005584716797, 9.808069229125977, -0.08373390138149261, 0.21785028278827667, 1.1101082563400269, -2.1558735370635986, 0.6710289716720581, 
491, 2982677043, 7.834053039550781, -88.13407897949219, -150.82106018066406, 9.809460639953613, -0.09249696135520935, 0.1979547142982483, 1.1725044250488281, -2.209740161895752, 0.6204664707183838, 
492, 2982685376, 7.809087753295898, -88.13250732421875, -150.79177856445312, 9.826199531555176, -0.0957312062382698, 0.23571184277534485, 1.0991966724395752, -2.068913221359253, 0.6177000999450684, 
493, 2982693709, 7.72196626663208, -88.13449096679688, -150.69952392578125, 9.799513816833496, -0.10573188960552216, 0.2219783216714859, 1.2393063306808472, -2.239119529724121, 0.6742563843727112, 
494, 2982702042, 7.69849157333374, -88.13565826416016, -150.6707305908203, 9.810635566711426, -0.09547778964042664, 0.21764107048511505, 1.2077239751815796, -2.365576982498169, 0.6551224589347839, 
495, 2982710375, 7.649860858917236, -88.13817596435547, -150.61724853515625, 9.844084739685059, -0.07615956664085388, 0.22331184148788452, 1.2048295736312866, -2.3466739654541016, 0.5345051288604736, 
496, 2982718708, 7.640048980712891, -88.13806915283203, -150.6029815673828, 9.778072357177734, -0.10943882912397385, 0.23078462481498718, 1.1091605424880981, -2.2035417556762695, 0.5766148567199707, 
497, 2982727041, 7.556983947753906, -88.1390151977539, -150.51531982421875, 9.8267822265625, -0.08944432437419891, 0.23561130464076996, 1.1678683757781982, -2.1668362617492676, 0.6451585292816162, 
498, 2982735374, 7.548516750335693, -88.13912200927734, -150.5023651123047, 9.812536239624023, -0.10587473958730698, 0.19023536145687103, 1.1347746849060059, -2.2497239112854004, 0.5779468417167664, 
499, 2982743707, 7.500342845916748, -88.14069366455078, -150.4498291015625, 9.812294006347656, -0.08344385027885437, 0.22900298237800598, 1.1352869272232056, -2.247854232788086, 0.519110918045044, 
500, 2982752040, 7.514280319213867, -88.1413345336914, -150.458984375, 9.821918487548828, -0.0879240408539772, 0.23388946056365967, 1.130138635635376, -2.278156042098999, 0.49339425563812256, 
501, 2982760373, 7.474982261657715, -88.14237976074219, -150.41552734375, 9.81279468536377, -0.08995965868234634, 0.24209721386432648, 1.1322388648986816, -2.2031829357147217, 0.4781280755996704, 
502, 2982768706, 7.481752395629883, -88.14227294921875, -150.41787719726562, 9.78722858428955, -0.07347384095191956, 0.22340822219848633, 1.09694242477417, -2.209125518798828, 0.5113241076469421, 
503, 2982777039, 7.422474384307861, -88.1451187133789, -150.3539581298828, 9.806808471679688, -0.06326842308044434, 0.20282161235809326, 1.190588116645813, -2.3802030086517334, 0.5822243690490723, 
504, 2982785372, 7.4086833000183105, -88.14385986328125, -150.3349151611328, 9.848688125610352, -0.08584863692522049, 0.2401171624660492, 1.1892050504684448, -2.074625253677368, 0.5761283040046692, 
505, 2982793705, 7.358731269836426, -88.14544677734375, -150.2806854248047, 9.777912139892578, -0.09654468297958374, 0.20718179643154144, 1.1513214111328125, -2.250927686691284, 0.5292028784751892, 
506, 2982802038, 7.332300186157227, -88.14533233642578, -150.24887084960938, 9.8084135055542, -0.07991206645965576, 0.2239258587360382, 1.2094402313232422, -2.1779017448425293, 0.6406760811805725, 
507, 2982810371, 7.215421199798584, -88.14701843261719, -150.12741088867188, 9.821043968200684, -0.09686213731765747, 0.23253042995929718, 1.177729606628418, -2.246317148208618, 0.7899813652038574, 
508, 2982818704, 7.178709983825684, -88.14596557617188, -150.0858612060547, 9.798314094543457, -0.09808330982923508, 0.2300238162279129, 1.1458399295806885, -2.0634825229644775, 0.663985013961792, 
509, 2982827037, 7.090539932250977, -88.14713287353516, -149.99267578125, 9.83085823059082, -0.09752887487411499, 0.2217099368572235, 1.2366424798965454, -2.216348648071289, 0.676382303237915, 
510, 2982835370, 7.0673041343688965, -88.14765930175781, -149.96426391601562, 9.803557395935059, -0.09736458957195282, 0.24033908545970917, 1.191586971282959, -2.274108648300171, 0.640112578868866, 
511, 2982843703, 7.013895034790039, -88.14850616455078, -149.90628051757812, 9.816929817199707, -0.07427506893873215, 0.20085881650447845, 1.1748607158660889, -2.1641721725463867, 0.5309702754020691, 
512, 2982852036, 7.001550197601318, -88.14807891845703, -149.88922119140625, 9.828975677490234, -0.09029228240251541, 0.21340465545654297, 1.1402305364608765, -2.180565357208252, 0.5844016075134277, 
513, 2982860369, 6.975329875946045, -88.14871215820312, -149.857666015625, 9.847207069396973, -0.08572519570589066, 0.2457571029663086, 1.2736036777496338, -2.143706798553467, 0.4253884255886078, 
514, 2982868702, 7.003290176391602, -88.1482925415039, -149.87979125976562, 9.821413040161133, -0.08895302563905716, 0.2393508106470108, 1.2633837461471558, -2.2067174911499023, 0.4332520067691803, 
515, 2982877035, 6.9741058349609375, -88.14935302734375, -149.845703125, 9.773759841918945, -0.09802677482366562, 0.2340419441461563, 1.2137945890426636, -2.207101821899414, 0.4448552131652832, 
516, 2982885368, 7.0012640953063965, -88.14892578125, -149.86734008789062, 9.813058853149414, -0.09290371090173721, 0.22977693378925323, 1.2266017198562622, -2.1593055725097656, 0.42889758944511414, 
517, 2982893701, 6.944571495056152, -88.1498794555664, -149.806396484375, 9.821413040161133, -0.08920393139123917, 0.2363889217376709, 1.157392144203186, -2.207460641860962, 0.5502065420150757, 
518, 2982902034, 6.928537845611572, -88.14913940429688, -149.78550720214844, 9.784943580627441, -0.08947638422250748, 0.19739380478858948, 1.136183500289917, -2.1063356399536133, 0.5892171263694763, 
519, 2982910367, 6.905139923095703, -88.15008544921875, -149.75775146484375, 9.835034370422363, -0.08777908980846405, 0.24093379080295563, 1.1541390419006348, -2.1992640495300293, 0.4215207099914551, 
520, 2982918700, 6.905215740203857, -88.15093231201172, -149.75218200683594, 9.799602508544922, -0.0865599662065506, 0.23738612234592438, 1.2458122968673706, -2.335839033126831, 0.5578396320343018, 
521, 2982927033, 6.842978477478027, -88.1530532836914, -149.68551635742188, 9.792969703674316, -0.0866100937128067, 0.2169095277786255, 1.1610292196273804, -2.3224170207977295, 0.587577760219574, 
522, 2982935366, 6.833573818206787, -88.15167999267578, -149.67164611816406, 9.815848350524902, -0.10154003649950027, 0.2380525916814804, 1.1162300109863281, -2.048729181289673, 0.5558930039405823, 
523, 2982943699, 6.794612884521484, -88.15262603759766, -149.62899780273438, 9.805296897888184, -0.10424095392227173, 0.23058350384235382, 1.048890233039856, -2.145320415496826, 0.47077688574790955, 
524, 2982952032, 6.816606521606445, -88.15326690673828, -149.64674377441406, 9.804129600524902, -0.10352331399917603, 0.17075566947460175, 1.086389422416687, -2.3146049976348877, 0.46409156918525696, 
525, 2982960365, 6.780139923095703, -88.15475463867188, -149.6067657470703, 9.82787799835205, -0.09720201045274734, 0.2234363704919815, 1.0329325199127197, -2.2304365634918213, 0.471622109413147, 
526, 2982968698, 6.832536697387695, -88.15411376953125, -149.65512084960938, 9.780108451843262, -0.08307412266731262, 0.283733069896698, 1.0605446100234985, -2.1526973247528076, 0.32528796792030334, 
527, 2982977031, 6.823792934417725, -88.1546401977539, -149.64356994628906, 9.8248291015625, -0.08048326522111893, 0.23519723117351532, 0.973814845085144, -2.2026963233947754, 0.35961106419563293, 
528, 2982985364, 6.849172115325928, -88.15475463867188, -149.6646270751953, 9.8352632522583, -0.09179823845624924, 0.20371714234352112, 1.0936894416809082, -2.251593828201294, 0.4441636800765991, 
529, 2982993697, 6.8163275718688965, -88.15729522705078, -149.62867736816406, 9.800811767578125, -0.08579397201538086, 0.22458410263061523, 0.9782716631889343, -2.3683688640594482, 0.4745933413505554, 
530, 2983002030, 6.8369951248168945, -88.15729522705078, -149.64511108398438, 9.822583198547363, -0.07438560575246811, 0.25236019492149353, 1.094329595565796, -2.268934488296509, 0.4647062122821808, 
531, 2983010363, 6.811437606811523, -88.159423828125, -149.615478515625, 9.814591407775879, -0.09544871002435684, 0.2089466154575348, 1.1049084663391113, -2.293447494506836, 0.4401678740978241, 
532, 2983018696, 6.832738876342773, -88.15953063964844, -149.63308715820312, 9.798147201538086, -0.086371511220932, 0.24100731313228607, 1.0234040021896362, -2.267705202102661, 0.4599676728248596, 
533, 2983027029, 6.787510871887207, -88.16059112548828, -149.58428955078125, 9.798528671264648, -0.09416761249303818, 0.20971032977104187, 1.0515028238296509, -2.177338123321533, 0.5010528564453125, 
534, 2983035362, 6.794074535369873, -88.16239929199219, -149.5869903564453, 9.840027809143066, -0.08623996376991272, 0.260651171207428, 1.0293208360671997, -2.4191362857818604, 0.5349916815757751, 
535, 2983043695, 6.747363090515137, -88.16314697265625, -149.53598022460938, 9.769538879394531, -0.1062968373298645, 0.27103736996650696, 1.1361067295074463, -2.1735727787017822, 0.511221706867218, 
536, 2983052028, 6.75374174118042, -88.16474914550781, -149.5380096435547, 9.788297653198242, -0.08154706656932831, 0.1555059403181076, 1.1052926778793335, -2.4188547134399414, 0.5380654335021973, 
537, 2983060361, 6.71638298034668, -88.16688537597656, -149.49661254882812, 9.806227684020996, -0.10397347807884216, 0.18824143707752228, 1.1274232864379883, -2.4049463272094727, 0.5028458833694458, 
538, 2983068694, 6.736882209777832, -88.16698455810547, -149.51315307617188, 9.814455032348633, -0.09169452637434006, 0.24401986598968506, 1.0551143884658813, -2.2543089389801025, 0.46291324496269226, 
539, 2983077027, 6.703747272491455, -88.1693344116211, -149.4761962890625, 9.770176887512207, -0.0799863263964653, 0.22466985881328583, 1.0845963954925537, -2.3518738746643066, 0.47651445865631104, 
540, 2983085360, 6.717696189880371, -88.17051696777344, -149.486083984375, 9.83040714263916, -0.07854187488555908, 0.25634440779685974, 1.071686863899231, -2.40256404876709, 0.5059195756912231, 
541, 2983093693, 6.6795654296875, -88.17426300048828, -149.44357299804688, 9.813024520874023, -0.0742417573928833, 0.2638673186302185, 1.1180741786956787, -2.484196424484253, 0.5125280618667603, 
542, 2983102026, 6.686021327972412, -88.17533111572266, -149.44638061523438, 9.790558815002441, -0.06644483655691147, 0.20579740405082703, 1.0206120014190674, -2.359531879425049, 0.5284857153892517, 
543, 2983110359, 6.630608558654785, -88.17715454101562, -149.3872833251953, 9.817733764648438, -0.08671297878026962, 0.2141866683959961, 1.0549607276916504, -2.246675729751587, 0.5500273108482361, 
544, 2983118692, 6.643618583679199, -88.17780303955078, -149.3955841064453, 9.78065013885498, -0.08820944279432297, 0.23547419905662537, 1.1107228994369507, -2.296879768371582, 0.49879884719848633, 
545, 2983127025, 6.5707573890686035, -88.17833709716797, -149.31924438476562, 9.801291465759277, -0.07255736738443375, 0.22598862648010254, 1.0841352939605713, -2.1960108280181885, 0.6135250329971313, 
546, 2983135358, 6.591670036315918, -88.17994689941406, -149.33485412597656, 9.787240028381348, -0.06966760009527206, 0.21440014243125916, 1.1943533420562744, -2.374465227127075, 0.4794600307941437, 
547, 2983143691, 6.518584728240967, -88.18221282958984, -149.25669860839844, 9.837431907653809, -0.09688180685043335, 0.1700793206691742, 1.2232718467712402, -2.31019926071167, 0.6302766799926758, 
548, 2983152024, 6.519804954528809, -88.18242645263672, -149.2537078857422, 9.81258487701416, -0.07140034437179565, 0.2574699819087982, 1.0697658061981201, -2.2421677112579346, 0.5352222919464111, 
549, 2983160357, 6.457586765289307, -88.18328857421875, -149.1873321533203, 9.772945404052734, -0.09880533069372177, 0.20774683356285095, 1.1330841779708862, -2.2173986434936523, 0.5768454074859619, 
550, 2983168690, 6.4535746574401855, -88.18522644042969, -149.17889404296875, 9.83029842376709, -0.07137852162122726, 0.24912041425704956, 1.0999137163162231, -2.4578652381896973, 0.581302285194397, 
551, 2983177023, 6.381296634674072, -88.1875991821289, -149.10313415527344, 9.799708366394043, -0.09951991587877274, 0.2281789779663086, 1.043511152267456, -2.3495681285858154, 0.6271517872810364, 
552, 2983185356, 6.371033191680908, -88.18803405761719, -149.08941650390625, 9.86414623260498, -0.08243928849697113, 0.24099695682525635, 0.9885174036026001, -2.273519515991211, 0.579048216342926, 
553, 2983193689, 6.300571441650391, -88.19019317626953, -149.01510620117188, 9.774699211120605, -0.08917345106601715, 0.24953137338161469, 1.0659747123718262, -2.3227500915527344, 0.6179306507110596, 
554, 2983202022, 6.305146217346191, -88.19073486328125, -149.01454162597656, 9.817800521850586, -0.08418648689985275, 0.2383435070514679, 1.187591314315796, -2.2981603145599365, 0.5329937934875488, 
555, 2983210355, 6.278757095336914, -88.19095611572266, -148.98446655273438, 9.766658782958984, -0.07114654034376144, 0.21271531283855438, 1.0736079216003418, -2.1259047985076904, 0.42794984579086304, 
556, 2983218688, 6.294406890869141, -88.1900863647461, -148.99549865722656, 9.841309547424316, -0.09107595682144165, 0.21600650250911713, 1.1319571733474731, -2.1212430000305176, 0.4694705605506897, 
557, 2983227021, 6.240777492523193, -88.1910629272461, -148.93785095214844, 9.795395851135254, -0.06333163380622864, 0.2458372712135315, 1.0736079216003418, -2.1432712078094482, 0.5330962538719177, 
558, 2983235354, 6.238211154937744, -88.1900863647461, -148.9311981201172, 9.827126502990723, -0.0695393979549408, 0.2683192193508148, 1.0798321962356567, -2.12370228767395, 0.5371689200401306, 
559, 2983243687, 6.196374893188477, -88.19203186035156, -148.88491821289062, 9.786059379577637, -0.08051043748855591, 0.21224810183048248, 1.156930923461914, -2.3371708393096924, 0.5134245157241821, 
560, 2983252020, 6.18616247177124, -88.193115234375, -148.86988830566406, 9.847281455993652, -0.07489695399999619, 0.21839474141597748, 1.1478378772735596, -2.33317494392395, 0.591368556022644, 
561, 2983260353, 6.126804828643799, -88.19452667236328, -148.8068389892578, 9.769811630249023, -0.08197848498821259, 0.22777386009693146, 1.0614155530929565, -2.239529609680176, 0.5670607686042786, 
562, 2983268686, 6.145850658416748, -88.19528198242188, -148.82174682617188, 9.820987701416016, -0.08170823007822037, 0.25562992691993713, 1.0798064470291138, -2.323108434677124, 0.47679615020751953, 
563, 2983277019, 6.114985942840576, -88.19712829589844, -148.78759765625, 9.806770324707031, -0.07369431853294373, 0.2074485421180725, 1.0089576244354248, -2.313016653060913, 0.4649624228477478, 
564, 2983285352, 6.112730503082275, -88.19810485839844, -148.78103637695312, 9.789937973022461, -0.0840749740600586, 0.22157059609889984, 1.0884897708892822, -2.3405263423919678, 0.5602730512619019, 
565, 2983293685, 6.05176305770874, -88.20060729980469, -148.71644592285156, 9.800652503967285, -0.08857637643814087, 0.22460956871509552, 1.0597505569458008, -2.3807151317596436, 0.5883461236953735, 
566, 2983302018, 6.03572416305542, -88.20082092285156, -148.6964111328125, 9.810164451599121, -0.09474090486764908, 0.20749947428703308, 1.0537824630737305, -2.2710092067718506, 0.6028695106506348, 
567, 2983310351, 5.980220317840576, -88.20333099365234, -148.63699340820312, 9.837032318115234, -0.08066580444574356, 0.2208617478609085, 1.0748628377914429, -2.3519246578216553, 0.5641151070594788, 
568, 2983318684, 5.989505290985107, -88.2039794921875, -148.64212036132812, 9.794662475585938, -0.10436537861824036, 0.23834776878356934, 1.0725833177566528, -2.294523239135742, 0.5117083787918091, 
569, 2983327017, 5.930074214935303, -88.20572662353516, -148.57884216308594, 9.838376998901367, -0.09604057669639587, 0.21460309624671936, 1.0757339000701904, -2.298032522201538, 0.5747194886207581, 
570, 2983335350, 5.941558361053467, -88.20550537109375, -148.58692932128906, 9.783491134643555, -0.10547192394733429, 0.23779578506946564, 0.9957917332649231, -2.218961238861084, 0.49106329679489136, 
571, 2983343683, 5.918440341949463, -88.20594787597656, -148.56021118164062, 9.815200805664062, -0.09264475852251053, 0.23692989349365234, 1.0621583461761475, -2.1662471294403076, 0.4226476550102234, 
572, 2983352016, 5.927600383758545, -88.20507049560547, -148.56671142578125, 9.809745788574219, -0.0934230238199234, 0.21120931208133698, 0.8968439698219299, -2.141042470932007, 0.48906540870666504, 
573, 2983360349, 5.890872478485107, -88.20660400390625, -148.52737426757812, 9.774752616882324, -0.09040464460849762, 0.19790522754192352, 0.8948460817337036, -2.2208566665649414, 0.47543859481811523, 
574, 2983368682, 5.914249897003174, -88.20638275146484, -148.54763793945312, 9.82224178314209, -0.08113973587751389, 0.21069738268852234, 0.9555262923240662, -2.213172674179077, 0.44441983103752136, 
575, 2983377015, 5.8811140060424805, -88.20801544189453, -148.5113983154297, 9.81374740600586, -0.09442231059074402, 0.23845504224300385, 0.9761713743209839, -2.2701127529144287, 0.4701108932495117, 
576, 2983385348, 5.897499084472656, -88.20823669433594, -148.52426147460938, 9.803170204162598, -0.08730662614107132, 0.25251534581184387, 0.9862889051437378, -2.229693651199341, 0.4742347002029419, 
577, 2983393681, 5.874698638916016, -88.20965576171875, -148.49856567382812, 9.813231468200684, -0.09079509228467941, 0.2360651195049286, 0.9819858074188232, -2.3155269622802734, 0.43581342697143555, 
578, 2983402014, 5.884649276733398, -88.20943450927734, -148.50537109375, 9.829390525817871, -0.062173206359148026, 0.22811631858348846, 0.9570887088775635, -2.210073232650757, 0.4956226646900177, 
579, 2983410347, 5.840094566345215, -88.21162414550781, -148.4580078125, 9.806427955627441, -0.08086515218019485, 0.22147604823112488, 0.9548347592353821, -2.325772762298584, 0.5184962153434753, 
580, 2983418680, 5.827084064483643, -88.2122802734375, -148.44187927246094, 9.789956092834473, -0.07324869185686111, 0.24050746858119965, 0.9592914581298828, -2.3016953468322754, 0.5914455056190491, 
581, 2983427013, 5.7595062255859375, -88.21501922607422, -148.37156677246094, 9.80870532989502, -0.07658809423446655, 0.20143532752990723, 0.935444712638855, -2.407456398010254, 0.6127053499221802, 
582, 2983435346, 5.73009729385376, -88.21611785888672, -148.33905029296875, 9.830483436584473, -0.07593116164207458, 0.2366238683462143, 0.9635690450668335, -2.3645524978637695, 0.6593231558799744, 
583, 2983443679, 5.6674699783325195, -88.21842193603516, -148.2738800048828, 9.79269027709961, -0.09376589208841324, 0.2528797388076782, 0.9131858348846436, -2.3631181716918945, 0.5890633463859558, 
584, 2983452012, 5.662808895111084, -88.22051239013672, -148.26626586914062, 9.809195518493652, -0.10128854960203171, 0.233648881316185, 0.9430264234542847, -2.5085556507110596, 0.5788688659667969, 
585, 2983460345, 5.6334404945373535, -88.22502899169922, -148.23513793945312, 9.803707122802734, -0.09730539470911026, 0.21831217408180237, 0.8045303225517273, -2.5752809047698975, 0.48248258233070374, 
586, 2983468678, 5.659186363220215, -88.22811889648438, -148.2584228515625, 9.815032005310059, -0.11067527532577515, 0.22534704208374023, 0.8747389912605286, -2.5917253494262695, 0.47128912806510925, 
587, 2983477011, 5.680401802062988, -88.23020935058594, -148.27841186523438, 9.798978805541992, -0.1060902401804924, 0.22267036139965057, 0.7509965896606445, -2.3608896732330322, 0.27085772156715393, 
588, 2983485344, 5.744159698486328, -88.23054504394531, -148.33973693847656, 9.809014320373535, -0.08893001079559326, 0.24480319023132324, 0.869488000869751, -2.278386116027832, 0.29849547147750854, 
589, 2983493677, 5.774318695068359, -88.23431396484375, -148.36830139160156, 9.821915626525879, -0.07486597448587418, 0.21765413880348206, 0.8182083368301392, -2.5783801078796387, 0.2626611888408661, 
590, 2983502010, 5.880340576171875, -88.23553466796875, -148.47251892089844, 9.816225051879883, -0.0852055624127388, 0.20174434781074524, 0.8079625964164734, -2.441727876663208, 0.15920528769493103, 
591, 2983510343, 5.945887088775635, -88.23619842529297, -148.53448486328125, 9.84325122833252, -0.09098010510206223, 0.20773091912269592, 1.041922926902771, -2.1973938941955566, 0.10006199777126312, 
592, 2983518676, 6.061100006103516, -88.23509216308594, -148.6478271484375, 9.795127868652344, -0.09855025261640549, 0.2395929992198944, 0.8078089356422424, -2.1336402893066406, 0.09196790307760239, 
593, 2983527009, 6.118753910064697, -88.23519897460938, -148.7025146484375, 9.82347297668457, -0.08210016787052155, 0.24097487330436707, 0.9717913269996643, -2.1402742862701416, 0.12203902006149292, 
594, 2983535342, 6.24258279800415, -88.23331451416016, -148.82293701171875, 9.818558692932129, -0.0676209107041359, 0.23100648820400238, 0.9941524863243103, -2.065736770629883, 0.0580802746117115, 
595, 2983543675, 6.303159713745117, -88.2338638305664, -148.8793487548828, 9.812256813049316, -0.08923918008804321, 0.20481933653354645, 1.103986382484436, -2.1708321571350098, 0.11868356913328171, 
596, 2983552008, 6.413239002227783, -88.23265075683594, -148.98548889160156, 9.808429718017578, -0.05264204367995262, 0.1980152428150177, 1.0570865869522095, -2.114173173904419, 0.11645513027906418, 
597, 2983560341, 6.460379123687744, -88.23143005371094, -149.0289306640625, 9.821370124816895, -0.05153534933924675, 0.20049230754375458, 1.072967529296875, -2.0109736919403076, 0.15057329833507538, 
598, 2983568674, 6.506961822509766, -88.22856140136719, -149.07131958007812, 9.810773849487305, -0.07844936102628708, 0.22693027555942535, 1.0857234001159668, -1.917481541633606, 0.33051323890686035, 
599, 2983577007, 6.528840065002441, -88.22734069824219, -149.08810424804688, 9.826087951660156, -0.09054908901453018, 0.2394467443227768, 1.227370023727417, -1.9739353656768799, 0.24565330147743225, 
600, 2983585340, 6.596046447753906, -88.22623443603516, -149.14840698242188, 9.85434341430664, -0.09395931661128998, 0.22144833207130432, 1.395322561264038, -2.1154284477233887, 0.2848687171936035, 
601, 2983593673, 6.616589546203613, -88.22789764404297, -149.162353515625, 9.849660873413086, -0.10105778276920319, 0.20918193459510803, 1.4049534797668457, -2.3016180992126465, 0.2950119376182556, 
