PacketCounter,SampleTimeFine,Euler_X,Euler_Y,Euler_Z,Acc_X,Acc_Y,Acc_Z,Gyr_X,Gyr_Y,Gyr_Z,Unnamed: 11,time_seconds,Acc_Z_derivative
0,2936795545,0.6774199604988098,-87.95320892333984,-168.3384246826172,0.0,0.0,0.0,0.0,0.0,0.0, ,0.0,33.12153339385986
1,2936803878,0.7294265627861023,-87.95283508300781,-168.38621520996094,9.787351608276367,-0.0998809486627578,0.2760127782821655,1.0879775285720823,-2.2024402618408203,0.3235718309879303, ,0.008333333333333333,18.089134097099304
2,2936812211,0.722955048084259,-87.9534912109375,-168.37625122070312,9.854456901550291,-0.0859435051679611,0.3014855682849884,1.0089832544326782,-2.2425520420074463,0.478768527507782, ,0.016666666666666666,0.6421548128128052
3,2936820544,0.7364615797996521,-87.95426940917969,-168.3857421875,9.85830783843994,-0.0964886918663978,0.2867153584957123,1.0608519315719604,-2.3501317501068115,0.488425076007843, ,0.025,-0.010271072387695312
4,2936828877,0.6805468797683716,-87.95560455322266,-168.32586669921875,9.828652381896973,-0.088661603629589,0.3013143837451935,1.0510929822921753,-2.294343948364258,0.6929290294647217, ,0.03333333333333333,-0.31049787998199463
5,2936837210,0.6430816054344177,-87.95608520507812,-168.2838897705078,9.794329643249512,-0.1030975580215454,0.2815403938293457,1.1111071109771729,-2.2851996421813965,0.7077341079711914, ,0.041666666666666664,0.19333362579345703
6,2936845543,0.5727745890617371,-87.95838165283203,-168.20831298828125,9.824915885925291,-0.0921781510114669,0.3045366108417511,1.2042148113250732,-2.3489532470703125,0.7601408362388611, ,0.05,-0.32054722309112904
7,2936853876,0.5432527661323547,-87.95972442626953,-168.17474365234375,9.765295028686523,-0.1083422601222992,0.2761979401111603,1.0511696338653564,-2.3841726779937744,0.673641562461853, ,0.058333333333333334,-0.1774120330810547
8,2936862209,0.4681711196899414,-87.96231079101562,-168.09524536132812,9.81771183013916,-0.0952416062355041,0.3015797436237335,1.10872483253479,-2.48499083518982,0.7774049043655396, ,0.06666666666666667,1.0123372077941895
9,2936870542,0.459884375333786,-87.96231079101562,-168.08258056640625,9.788589477539062,-0.1109866872429847,0.2930702269077301,1.0960972309112549,-2.19624137878418,0.582531750202179, ,0.075,-1.3369452953338623
10,2936878875,0.4293517172336578,-87.96443176269531,-168.04820251464844,9.787313461303713,-0.0851810872554779,0.2792973220348358,1.0432549715042114,-2.4545607566833496,0.5841454863548279, ,0.08333333333333333,-1.3694250583648682
11,2936887208,0.4339707493782043,-87.96587371826172,-168.04869079589844,9.817891120910645,-0.0906520187854766,0.2702464759349823,1.0737614631652832,-2.414090394973755,0.5272049903869629, ,0.09166666666666666,-0.8768463134765678
12,2936895541,0.4291634559631347,-87.96673583984375,-168.03982543945312,9.80711841583252,-0.1192951127886772,0.2646832168102264,1.061850905418396,-2.248059034347534,0.4732102453708648, ,0.1,2.1361273527145457
13,2936903874,0.4306768178939819,-87.96875762939453,-168.03738403320312,9.785027503967283,-0.1199607253074646,0.3058485984802246,1.047583818435669,-2.4684948921203613,0.5407036542892456, ,0.10833333333333334,1.4954316616058367
14,2936912207,0.4280757904052734,-87.97039794921875,-168.0304412841797,9.79902458190918,-0.096910648047924,0.2896070778369903,1.107469916343689,-2.3689327239990234,0.4669603407382965, ,0.11666666666666667,-2.7982109785079974
15,2936920540,0.433641642332077,-87.97088623046875,-168.0325164794922,9.795459747314451,-0.0900013893842697,0.2592117488384247,0.989157736301422,-2.292679071426392,0.5199818015098572, ,0.125,0.5674231052398682
16,2936928873,0.419447511434555,-87.97309875488281,-168.01449584960938,9.813374519348145,-0.0983252301812172,0.2990641295909881,1.037030816078186,-2.3954689502716064,0.5139111876487732, ,0.13333333333333333,0.32116949558258057
17,2936937206,0.4119206964969635,-87.973388671875,-168.00253295898438,9.799235343933104,-0.1077464371919632,0.264564573764801,1.105548858642578,-2.2532331943511963,0.5785871744155884, ,0.14166666666666666,-2.3066622018814105
18,2936945539,0.394677996635437,-87.97532653808594,-167.98130798339844,9.812074661254885,-0.0934627503156662,0.2606197595596313,1.0613642930984497,-2.386324405670166,0.5276147723197937, ,0.15,1.293057203292845
19,2936953872,0.3915262520313263,-87.97618865966797,-167.9744415283203,9.818422317504885,-0.0940226688981056,0.2861155271530151,1.0130558013916016,-2.3336870670318604,0.5568662285804749, ,0.15833333333333333,3.197488188743593
20,2936962205,0.3613315522670746,-87.97880554199219,-167.94033813476562,9.79349136352539,-0.0964802429080009,0.3139112293720245,1.0534493923187256,-2.448439359664917,0.5822243690490723, ,0.16666666666666666,-0.7893633842468262
21,2936970538,0.3449110388755798,-87.98054504394531,-167.9202423095703,9.80948543548584,-0.1082537621259689,0.2729594707489013,1.0152586698532104,-2.449438095092773,0.6133456826210022, ,0.175,-1.1346030235290527
22,2936978871,0.2891686558723449,-87.98297119140625,-167.86090087890625,9.83412265777588,-0.1063428223133087,0.2950011789798736,1.0038089752197266,-2.430765390396118,0.6887027025222778, ,0.18333333333333332,0.11149942874908803
23,2936987204,0.2443940639495849,-87.98326873779297,-167.812255859375,9.81499195098877,-0.1244768127799034,0.2748177945613861,1.0395408868789673,-2.298032283782959,0.7336813807487488, ,0.19166666666666665,-1.173570156097412
24,2936995537,0.1938182115554809,-87.98578643798828,-167.75743103027344,9.81601333618164,-0.1063605770468711,0.2754416763782501,1.090820550918579,-2.4614510536193848,0.6691334247589111, ,0.2,-0.933142304420473
25,2937003870,0.1713417470455169,-87.98666381835938,-167.73057556152344,9.809812545776367,-0.1119986176490783,0.2592654228210449,1.093305230140686,-2.2984936237335205,0.6407017111778259, ,0.20833333333333334,-0.2846753597259557
26,2937012203,0.1053237169981002,-87.98860931396484,-167.6598358154297,9.796744346618652,-0.1018118783831596,0.2706970870494842,1.141716241836548,-2.373389482498169,0.734270453453064, ,0.21666666666666667,0.19275784492492676
27,2937020536,0.0995177775621414,-87.98997497558594,-167.6492156982422,9.818103790283203,-0.0947234332561492,0.2624780535697937,1.1578274965286257,-2.4122719764709477,0.5731569528579712, ,0.225,1.3177764415740967
28,2937028869,0.0582252219319343,-87.99114227294922,-167.60238647460938,9.830001831054688,-0.1095712482929229,0.2926600277423858,1.2329283952713013,-2.266065835952759,0.6329405307769775, ,0.23333333333333334,1.3306063413620013
29,2937037202,0.0289907976984977,-87.9926986694336,-167.56834411621094,9.81860637664795,-0.0928622856736183,0.284654825925827,1.1530632972717283,-2.433403730392456,0.6709521412849426, ,0.24166666666666667,-1.8983155488967878
30,2937045535,-0.0224922802299261,-87.9943618774414,-167.51251220703125,9.792065620422363,-0.1102362051606178,0.2610214352607727,1.1048060655593872,-2.3337130546569824,0.670260488986969, ,0.25,-1.6975861787796003
31,2937053868,-0.069595567882061,-87.9941635131836,-167.4602508544922,9.820775985717772,-0.10393688082695,0.256361722946167,1.1866179704666138,-2.2105085849761963,0.7472825646400452, ,0.2583333333333333,1.467141509056077
32,2937062201,-0.1407220810651779,-87.99347686767578,-167.3828887939453,9.813691139221191,-0.0876582413911819,0.2854737937450409,1.335334062576294,-2.096653699874878,0.7610886096954346, ,0.26666666666666666,0.8381187915801949
33,2937070534,-0.1904134452342987,-87.9917221069336,-167.32728576660156,9.796306610107422,-0.0933261066675186,0.2703303694725036,1.282082200050354,-2.02639389038086,0.7618826627731323, ,0.275,-2.563488185405742
34,2937078867,-0.2309278696775436,-87.99075317382812,-167.28086853027344,9.806591033935549,-0.108903557062149,0.2427489906549453,1.2685961723327637,-1.9709898233413696,0.631442129611969, ,0.2833333333333333,1.5366643667220785
35,2937087200,-0.2746209800243377,-87.98908996582031,-167.23106384277344,9.803234100341797,-0.0982636660337448,0.2959414422512054,1.3027528524398804,-2.029876708984375,0.7383430600166321, ,0.2916666666666667,0.8936968445777591
36,2937095533,-0.3198596835136413,-87.98715209960938,-167.1807098388672,9.807373046875,-0.1070207357406616,0.2576439380645752,1.196735382080078,-1.9576449394226076,0.6484372019767761, ,0.3,-0.9144544601440678
37,2937103866,-0.3388124108314514,-87.98530578613281,-167.1565399169922,9.812626838684082,-0.0977991372346878,0.280700534582138,1.199655532836914,-2.0190675258636475,0.6314805150032043, ,0.30833333333333335,1.232852339744559
38,2937112199,-0.3562134504318237,-87.98384857177734,-167.1333465576172,9.79377269744873,-0.0953825712203979,0.278191477060318,1.2712472677230835,-1.9825674295425413,0.5341208577156067, ,0.31666666666666665,-0.3344142436981201
39,2937120532,-0.3757838606834411,-87.98278045654297,-167.10855102539062,9.82531452178955,-0.110031671822071,0.275126963853836,1.2006288766860962,-2.098010778427124,0.631583034992218, ,0.325,-0.07005393505096436
40,2937128865,-0.3921477198600769,-87.98133087158203,-167.08676147460938,9.780303001403809,-0.0931284055113792,0.2770239114761352,1.2333638668060305,-1.9763686656951904,0.5319436192512512, ,0.3333333333333333,-0.6825685501098562
41,2937137198,-0.3739528059959411,-87.97948455810547,-167.10035705566406,9.826211929321287,-0.102219633758068,0.263750821352005,1.1234532594680786,-2.014713287353516,0.4715196490287781, ,0.3416666666666667,0.30349731445314276
42,2937145531,-0.388092577457428,-87.9789047241211,-167.08157348632812,9.79258632659912,-0.1045841202139854,0.282082200050354,1.1348260641098022,-2.0727808475494385,0.5158323049545288, ,0.35,1.139547228813175
43,2937153864,-0.3772394955158233,-87.97783660888672,-167.0871124267578,9.799493789672852,-0.1019105911254882,0.2827432751655578,1.2142555713653564,-2.117196083068848,0.5053048133850098, ,0.35833333333333334,0.26207685470581055
44,2937162197,-0.3469161093235016,-87.97657775878906,-167.1124725341797,9.793456077575684,-0.0860987231135368,0.2864501476287842,1.1740669012069702,-2.010717391967773,0.3299497365951538, ,0.36666666666666664,0.8070981502532923
45,2937170530,-0.3016609251499176,-87.9758071899414,-167.1529541015625,9.819549560546877,-0.1039072051644325,0.2961949110031128,1.1577249765396118,-2.1477792263031006,0.3565373420715332, ,0.375,-0.6281715631485092
46,2937178863,-0.2581828832626343,-87.97648620605469,-167.1923370361328,9.794671058654783,-0.1073607504367828,0.2759806215763092,1.0522712469100952,-2.18865966796875,0.2692440450191498, ,0.3833333333333333,-1.0576128959655868
47,2937187196,-0.1849008202552795,-87.97618865966797,-167.26170349121094,9.79708194732666,-0.1124350652098655,0.2785680294036865,1.0481984615325928,-2.21744966506958,0.2345623821020126, ,0.39166666666666666,1.5500485897064138
48,2937195529,-0.1582962423563003,-87.9758071899414,-167.28408813476562,9.774596214294434,-0.1155758798122406,0.3018147647380829,1.0921525955200195,-2.108179807662964,0.3423214554786682, ,0.4,1.600370407104485
49,2937203862,-0.0927669331431388,-87.97706604003906,-167.3450164794922,9.798785209655762,-0.1177564114332199,0.3052408695220947,1.1283711194992063,-2.371366024017334,0.2699612379074096, ,0.4083333333333333,-2.5698459148406787
50,2937212195,-0.062634103000164,-87.97774505615234,-167.37103271484375,9.792040824890137,-0.0859726518392562,0.2589839994907379,1.083187460899353,-2.2559478282928467,0.3273371160030365, ,0.4166666666666667,-2.0179259777068843
51,2937220528,-0.0244454927742481,-87.97802734375,-167.40492248535156,9.771758079528809,-0.0895102620124816,0.2716087698936462,1.0889252424240112,-2.254180908203125,0.384815514087677, ,0.425,2.50428020954131
52,2937228861,-0.0321442298591136,-87.97860717773438,-167.39324951171875,9.807969093322754,-0.0767374783754348,0.3007220029830932,1.0436903238296509,-2.2020046710968018,0.4851464331150055, ,0.43333333333333335,1.4806365966796733
53,2937237194,0.0248099099844694,-87.97802734375,-167.44656372070312,9.824872970581056,-0.0782714337110519,0.2962860465049743,1.0232503414154053,-2.1917078495025635,0.3021583557128906, ,0.44166666666666665,-0.8245199918746913
54,2937245527,0.045471254736185,-87.9784164428711,-167.4629669189453,9.77394962310791,-0.0830080211162567,0.286980003118515,1.0885154008865356,-2.185534715652466,0.3683711290359497, ,0.45,-0.21505057811735995
55,2937253860,0.0797058790922164,-87.97899627685547,-167.49415588378906,9.834500312805176,-0.0812850072979927,0.2927018702030182,0.9345738291740416,-2.2904508113861084,0.395522266626358, ,0.4583333333333333,1.1604577302932704
56,2937262193,0.0890803411602974,-87.97909545898438,-167.50025939941406,9.8032865524292,-0.0996173918247222,0.3063209652900696,0.979373037815094,-2.201978921890259,0.4134265482425689, ,0.4666666666666667,0.8116900920867884
57,2937270526,0.1093228682875633,-87.98035430908203,-167.51754760742188,9.792635917663574,-0.1033021807670593,0.3062300384044647,0.9308341145515442,-2.392830371856689,0.455305814743042, ,0.475,-1.062483787536621
58,2937278859,0.1307173371315002,-87.9822998046875,-167.53512573242188,9.790950775146484,-0.1154054701328277,0.2886129021644592,1.0264264345169067,-2.329768180847168,0.3628127872943878, ,0.48333333333333334,-2.4150556325912476
59,2937287192,0.2038387358188629,-87.98287963867188,-167.6065673828125,9.811758995056152,-0.1151347681879997,0.2659791111946106,0.7847305536270142,-2.303616523742676,0.2270573675632476, ,0.49166666666666664,-0.6398516893386983
60,2937295525,0.3045641183853149,-87.98432922363281,-167.70480346679688,9.784146308898926,-0.1044444069266319,0.2779487073421478,0.8769418001174927,-2.3354291915893555,0.0232705324888229, ,0.5,1.3091951608657801
61,2937303858,0.4370494782924652,-87.9852066040039,-167.83584594726562,9.793904304504396,-0.1099598258733749,0.2877990305423736,0.7564780116081238,-2.3659613132476807,-0.0230271983891725, ,0.5083333333333333,0.8307158946990967
62,2937312191,0.5776916146278381,-87.98783111572266,-167.974365234375,9.816241264343262,-0.0978699028491973,0.2917939722537994,0.8321169018745422,-2.4289467334747314,-0.1439007669687271, ,0.5166666666666666,-1.4168930053710636
63,2937320524,0.7382615804672241,-87.98851013183594,-168.1328125,9.785404205322266,-0.0831658169627189,0.2641841471195221,0.838546097278595,-2.299390316009521,-0.13857302069664, ,0.525,-1.7843985557555868
64,2937328857,0.864173412322998,-87.99085235595703,-168.25746154785156,9.806859970092772,-0.0908654853701591,0.2620539963245392,0.7374210357666016,-2.4617841243743896,-0.0813764259219169, ,0.5333333333333333,2.0656496286392265
65,2937337190,1.0023859739303589,-87.99182891845703,-168.3929901123047,9.800376892089844,-0.0898909792304039,0.2986116409301758,0.9108037352561952,-2.3844804763793945,-0.0399325937032699, ,0.5416666666666666,0.7217001914978471
66,2937345523,1.077688694000244,-87.9951400756836,-168.4652557373047,9.823994636535645,-0.0689814388751983,0.2740823328495025,0.9453574419021606,-2.5322744846343994,0.1420949697494506, ,0.55,-0.7390844821929647
67,2937353856,1.1411278247833252,-87.9963150024414,-168.5250244140625,9.806745529174805,-0.0801202654838562,0.2862935662269592,1.0248383283615112,-2.422184705734253,0.2811546325683594, ,0.5583333333333333,-0.8368116617202759
68,2937362189,1.1818554401397705,-87.99748229980469,-168.563232421875,9.811193466186523,-0.0679362118244171,0.2601354718208313,0.8775309920310974,-2.2875564098358154,0.2806679904460907, ,0.5666666666666667,-1.4502453804016149
69,2937370522,1.223515868186951,-87.9992446899414,-168.6016845703125,9.820038795471191,-0.0655842497944831,0.2621228098869324,0.9597526788711548,-2.4261035919189453,0.3709325194358825, ,0.575,2.7995055913924762
70,2937378855,1.2074536085128784,-88.00139617919922,-168.58273315429688,9.820551872253418,-0.0769074857234954,0.3067938983440399,0.91761714220047,-2.41772723197937,0.5241312384605408, ,0.5833333333333334,0.9907257556914679
71,2937387188,1.213750958442688,-88.00335693359375,-168.5858612060547,9.807628631591797,-0.1144373938441276,0.2786349058151245,0.9574217796325684,-2.4710309505462646,0.5185730457305908, ,0.5916666666666667,-1.9982939958572494
72,2937395521,1.2139232158660889,-88.00541687011719,-168.58384704589844,9.79457664489746,-0.0995192378759384,0.2734889984130859,0.8291968107223511,-2.396442413330078,0.4516173303127289, ,0.6,0.8100861310958898
73,2937403854,1.22922945022583,-88.00747680664062,-168.5965576171875,9.78476333618164,-0.0985474735498428,0.2921363413333893,0.8872900009155273,-2.484452486038208,0.4803309738636017, ,0.6083333333333333,-0.10675728321072242
74,2937412187,1.2573823928833008,-88.00934600830078,-168.6222381591797,9.792810440063477,-0.0870198160409927,0.2717097103595733,0.8792983293533325,-2.3714427947998047,0.3349189460277557, ,0.6166666666666667,-1.6621792316436608
75,2937420520,1.3203171491622925,-88.01101684570312,-168.6827850341797,9.810397148132324,-0.0932460948824882,0.264433354139328,0.8685147762298584,-2.4462618827819824,0.2808729410171509, ,0.625,-2.561190426349647
76,2937428853,1.3607392311096191,-88.0137710571289,-168.72122192382812,9.77791976928711,-0.0668548643589019,0.229023203253746,0.8172861933708191,-2.485938549041748,0.2868153750896454, ,0.6333333333333333,-0.029495358467105603
77,2937437186,1.4308680295944214,-88.01476287841797,-168.7885284423828,9.796015739440918,-0.082836240530014,0.2639417648315429,0.9131859540939332,-2.3350961208343506,0.2501102089881897, ,0.6416666666666666,5.567655265331233
78,2937445519,1.4951006174087524,-88.01603698730469,-168.84945678710938,9.809319496154783,-0.1072052866220474,0.3218174576759338,0.980602502822876,-2.336171865463257,0.1905314922332763, ,0.65,2.7425712347029982
79,2937453852,1.5610541105270386,-88.01663208007812,-168.9124298095703,9.808145523071287,-0.0967660620808601,0.3096512854099273,0.9334723353385924,-2.303231954574585,0.2672461271286011, ,0.6583333333333333,-4.043936133384715
80,2937462185,1.605433702468872,-88.0184097290039,-168.95362854003906,9.816241264343262,-0.0810849368572235,0.2544185221195221,0.9613407254219056,-2.3809969425201416,0.2750840783119201, ,0.6666666666666666,-2.8613430261612365
81,2937470518,1.666394829750061,-88.0186996459961,-169.01193237304688,9.782617568969728,-0.079567551612854,0.2619622349739074,0.8930530548095703,-2.236250877380371,0.2851760983467102, ,0.675,1.4587086439132708
82,2937478851,1.6732425689697266,-88.01949310302734,-169.01565551757812,9.839848518371582,-0.0677379816770553,0.2787303328514099,0.9525550603866576,-2.2730329036712646,0.4273607134819031, ,0.6833333333333333,0.3733581304550224
83,2937487184,1.714240789413452,-88.0197982788086,-169.05325317382812,9.827613830566406,-0.0995404571294784,0.2681848704814911,0.9862890243530272,-2.2632226943969727,0.3724181652069092, ,0.6916666666666667,-0.06465554237365723
84,2937495517,1.7114545106887815,-88.02058410644531,-169.04722595214844,9.82009983062744,-0.0724261775612831,0.2776527404785156,0.9614430665969848,-2.224416971206665,0.4655771255493164, ,0.7,-0.8508825302123757
85,2937503850,1.7174776792526243,-88.02127838134766,-169.0493927001953,9.839489936828612,-0.0907788127660751,0.254003494977951,1.0343413352966309,-2.2915263175964355,0.5205197334289551, ,0.7083333333333334,0.2713751792908141
86,2937512183,1.6985632181167605,-88.02068328857422,-169.02687072753906,9.82982063293457,-0.0636213794350624,0.2821756601333618,1.0172566175460815,-2.1244447231292725,0.531943678855896, ,0.7166666666666667,0.2713179588317871
87,2937520516,1.692961812019348,-88.02068328857422,-169.01771545410156,9.82162380218506,-0.0692254602909088,0.2585254609584808,0.9968163967132568,-2.210764646530152,0.566010594367981, ,0.725,-2.7952784299850553
88,2937528849,1.63565194606781,-88.02127838134766,-168.9560089111328,9.819717407226562,-0.0807258188724517,0.2355876863002777,1.099836826324463,-2.246368408203125,0.696028470993042, ,0.7333333333333333,1.9063407182692789
89,2937537182,1.6294630765914917,-88.02227020263672,-168.94564819335938,9.786406517028809,-0.0729715600609779,0.2902978062629699,1.074607014656067,-2.336505174636841,0.5736948847770691, ,0.7416666666666667,4.234914779663043
90,2937545515,1.5409538745880127,-88.02375030517578,-168.85252380371094,9.80432415008545,-0.0709623917937278,0.3061695992946625,1.1276283264160156,-2.342831611633301,0.8288894295692444, ,0.75,-0.02229630947112682
91,2937553848,1.4571253061294556,-88.0246353149414,-168.76353454589844,9.797988891601562,-0.1058218851685524,0.2899262011051178,1.184210181236267,-2.306946039199829,0.898278534412384, ,0.7583333333333333,0.059466361999508166
92,2937562181,1.3335261344909668,-88.02533721923828,-168.63485717773438,9.77754020690918,-0.0936232954263687,0.3071607053279876,1.1879754066467283,-2.266526699066162,0.9734817743301392, ,0.7666666666666666,-1.187737584114032
93,2937570514,1.225851058959961,-88.02642822265625,-168.52142333984375,9.811819076538086,-0.0848900154232978,0.2701305747032165,1.2560324668884275,-2.346776247024536,0.9977640509605408, ,0.775,-1.7003506422042456
94,2937578847,1.1089184284210205,-88.02801513671875,-168.39886474609375,9.803780555725098,-0.0957863703370094,0.2788215279579162,1.2427899837493896,-2.3250298500061035,0.9489946961402892, ,0.7833333333333333,1.7533636093139684
95,2937587180,1.0324805974960327,-88.02831268310547,-168.3170166015625,9.800409317016602,-0.0871665179729461,0.2993533015251159,1.2164585590362549,-2.263299465179444,0.865568995475769, ,0.7916666666666666,0.2646428346634231
96,2937595513,0.9381845593452454,-88.03009796142578,-168.21766662597656,9.830963134765623,-0.0940066203474998,0.2832322418689728,1.171684741973877,-2.3493378162384038,0.8528899550437927, ,0.8,-3.788479864597333
97,2937603846,0.8726518154144287,-88.03059387207031,-168.1470947265625,9.791810989379885,-0.0881456807255745,0.2362119704484939,1.1782677173614502,-2.2783608436584477,0.8188487887382507, ,0.8083333333333333,-0.5843299627304077
98,2937612179,0.7634098529815674,-88.0318832397461,-168.03260803222656,9.83222770690918,-0.0903541296720504,0.2734934091567993,1.1914845705032349,-2.3196253776550293,0.9128016233444214, ,0.8166666666666667,2.191197574138652
99,2937620512,0.6547070741653442,-88.03228759765625,-167.91847229003906,9.835803031921388,-0.0904018878936767,0.2727319300174713,1.220403075218201,-2.2609941959381104,0.9987887144088744, ,0.825,0.4167240858077932
100,2937628845,0.5167355537414551,-88.03486633300781,-167.7749786376953,9.775032997131348,-0.0797479599714279,0.2804388105869293,1.245530605316162,-2.482864618301392,1.0328044891357422, ,0.8333333333333334,0.2591890096664322
101,2937637178,0.3535729348659515,-88.0358657836914,-167.60572814941406,9.804490089416504,-0.0939860194921493,0.2770517468452453,1.2993974685668943,-2.368215799331665,1.2245014905929563, ,0.8416666666666667,-1.1425960063934397
102,2937645511,0.1340319514274597,-88.03666687011719,-167.3797607421875,9.809869766235352,-0.064597487449646,0.2613955438137054,1.322270750999451,-2.1888644695281982,1.3678641319274902, ,0.85,-1.0639393329620361
103,2937653844,-0.0946391224861145,-88.03616333007812,-167.14404296875,9.80683708190918,-0.0998104363679885,0.2593194246292114,1.4092055559158323,-2.1989309787750244,1.4965503215789795, ,0.8583333333333333,2.0708173513412103
104,2937662177,-0.3405090272426605,-88.03597259521484,-166.89129638671875,9.832168579101562,-0.0859715417027473,0.2959091663360595,1.3916853666305542,-2.13702130317688,1.478184700012207, ,0.8666666666666667,0.849536061286873
105,2937670510,-0.600816011428833,-88.0367660522461,-166.62356567382812,9.795711517333984,-0.1180523484945297,0.2734783589839935,1.4441946744918823,-2.3299989700317383,1.626695990562439, ,0.875,-2.652715444564828
106,2937678843,-0.8428252935409546,-88.03816223144531,-166.3734588623047,9.815662384033203,-0.1016677170991897,0.2516972422599792,1.531897783279419,-2.315629243850708,1.4639431238174438, ,0.8833333333333333,-0.5175393819808978
107,2937687176,-1.044504165649414,-88.03885650634766,-166.16416931152344,9.794825553894045,-0.0859894752502441,0.2648527026176452,1.4721910953521729,-2.328948736190796,1.384846568107605, ,0.8916666666666666,0.9592169523239225
108,2937695509,-1.239935040473938,-88.03955841064453,-165.96189880371094,9.834556579589844,-0.1232717707753181,0.2676841914653778,1.3983452320098877,-2.306152105331421,1.266175627708435, ,0.9,3.5593646764755604
109,2937703842,-1.397161841392517,-88.03995513916016,-165.79771423339844,9.785646438598633,-0.1065649315714836,0.3241754472255707,1.401418924331665,-2.2946770191192627,1.200167894363403, ,0.9083333333333333,0.11842489242553711
110,2937712175,-1.5663193464279177,-88.0400619506836,-165.62158203125,9.806249618530272,-0.1068232879042625,0.2696579396724701,1.390737771987915,-2.1604583263397217,1.1616183519363403, ,0.9166666666666666,-3.744154572486895
111,2937720508,-1.7441550493240356,-88.03965759277344,-165.4370574951172,9.81146240234375,-0.1052381992340087,0.261772871017456,1.3664554357528689,-2.203925848007202,1.2845155000686646, ,0.9249999999999999,1.1539775133132615
112,2937728841,-1.90654718875885,-88.0400619506836,-165.26817321777344,9.792298316955566,-0.1024257093667984,0.2888908982276916,1.3387919664382937,-2.218705177307129,1.131239891052246, ,0.9333333333333333,0.719722509384118
113,2937737174,-2.0501623153686523,-88.0400619506836,-165.1171417236328,9.83782196044922,-0.0979173108935356,0.2737682461738586,1.4486769437789917,-2.230538845062256,1.145532488822937, ,0.9416666666666667,1.2818169593811106
114,2937745507,-2.207670211791992,-88.03995513916016,-164.9525604248047,9.809707641601562,-0.125963419675827,0.3102545142173767,1.4126121997833252,-2.181410789489746,1.1157177686691284, ,0.95,-0.0510549545287482
115,2937753840,-2.326267719268799,-88.0389633178711,-164.82763671875,9.80588722229004,-0.1102138683199882,0.2729173302650451,1.337639331817627,-2.149700164794922,1.0437159538269043, ,0.9583333333333334,-0.8090740442275504
116,2937762173,-2.473807573318481,-88.0389633178711,-164.673828125,9.797735214233398,-0.1204907223582267,0.2967699468135834,1.318761706352234,-2.170524835586548,1.07035493850708, ,0.9666666666666667,-1.2985932826995903
117,2937770506,-2.610937595367432,-88.0378646850586,-164.5308380126953,9.80766487121582,-0.1111122891306877,0.2512741088867187,1.2780351638793943,-2.1562321186065674,1.1188682317733765, ,0.975,-1.4271783828735387
118,2937778839,-2.792320966720581,-88.03746795654297,-164.34307861328125,9.822973251342772,-0.1027767434716224,0.2729836404323578,1.3211694955825806,-2.1249313354492188,1.2130517959594729, ,0.9833333333333333,2.3536902666091866
119,2937787172,-2.939977169036865,-88.03627014160156,-164.1887664794922,9.812862396240234,-0.0977392643690109,0.2905022799968719,1.352341890335083,-2.0800294876098637,1.1691490411758425, ,0.9916666666666667,-1.6621139645576957
120,2937795505,-3.077709197998047,-88.03557586669922,-164.04537963867188,9.759525299072266,-0.1279503405094146,0.2452817410230636,1.2636398077011108,-2.165735006332397,1.030780792236328, ,1.0,-1.002899408340454
121,2937803838,-3.1801772117614746,-88.03486633300781,-163.93655395507812,9.805359840393066,-0.0982524156570434,0.2737872898578644,1.3180699348449707,-2.1333327293396,0.980576753616333, ,1.0083333333333333,-0.22031575441360474
122,2937812171,-3.283109188079834,-88.03357696533203,-163.82852172851562,9.751745223999023,-0.1267901957035064,0.2416098117828369,1.1864386796951294,-2.036485433578491,0.8913114070892334, ,1.0166666666666666,1.2478476762771642
123,2937820504,-3.3665270805358887,-88.03277587890625,-163.7391357421875,9.808481216430664,-0.1246590763330459,0.2945847511291504,1.2801611423492432,-2.1417086124420166,0.9014290571212769, ,1.025,3.2968372106552213
124,2937828837,-3.4379379749298096,-88.03257751464844,-163.66171264648438,9.790444374084473,-0.1141542568802833,0.2965570986270904,1.285488843917847,-2.1429636478424072,0.7599615454673767, ,1.0333333333333332,-0.6162643432616903
125,2937837170,-3.483693599700928,-88.03218841552734,-163.61000061035156,9.80967617034912,-0.1348959654569625,0.2843136787414551,1.2923533916473389,-2.201568841934204,0.7420827746391296, ,1.0416666666666667,-1.697312593460076
126,2937845503,-3.5570383071899414,-88.03128814697266,-163.53204345703125,9.817743301391602,-0.1116981133818626,0.2682685554027557,1.137925148010254,-2.120525598526001,0.7664418816566467, ,1.05,-0.3952378034591675
127,2937853836,-3.580021381378174,-88.03089141845703,-163.50277709960938,9.801737785339355,-0.1024385541677475,0.2777263820171356,1.3147916793823242,-2.1662728786468506,0.6513059735298157, ,1.0583333333333333,1.253519654273994
128,2937862169,-3.646690607070923,-88.0304946899414,-163.4300994873047,9.819354057312012,-0.1252431720495224,0.2891605496406555,1.2910727262496948,-2.1310529708862305,0.7415193319320679, ,1.0666666666666667,-0.2839368581771886
129,2937870502,-3.677422046661377,-88.02900695800781,-163.3942413330078,9.84090518951416,-0.1209002807736396,0.2729941010475158,1.19778573513031,-2.070936441421509,0.6858339905738831, ,1.075,-1.2261325120925939
130,2937878835,-3.7029504776000977,-88.02860260009766,-163.36329650878906,9.744617462158203,-0.104259468615055,0.2687250077724457,1.2332613468170166,-2.132103204727173,0.5724141001701355, ,1.0833333333333333,-0.7327097654342687
131,2937887168,-3.738014459609986,-88.02761840820312,-163.3226318359375,9.781728744506836,-0.1061199977993965,0.2607822716236114,1.2435327768325806,-2.128030776977539,0.7017659544944763, ,1.0916666666666666,-0.4662197828292918
132,2937895501,-3.7892165184021,-88.02691650390625,-163.2667694091797,9.79603672027588,-0.1028502732515335,0.2609546780586242,1.1238374710083008,-2.0407629013061523,0.6798915266990662, ,1.1,1.799858808517488
133,2937903834,-3.836235046386719,-88.02513885498047,-163.21482849121094,9.800829887390137,-0.1118128299713134,0.2907799184322357,1.1499638557434082,-2.019221305847168,0.7559656500816345, ,1.1083333333333334,0.9262311458587718
134,2937912167,-3.9075443744659424,-88.02275848388672,-163.13861083984375,9.80898380279541,-0.1183269619941711,0.276391863822937,1.182621955871582,-1.9683512449264529,0.7715902924537659, ,1.1166666666666667,-1.3051825761795115
135,2937920500,-3.980679512023926,-88.02176666259766,-163.0598907470703,9.80562686920166,-0.092521421611309,0.2690268754959106,1.2233998775482178,-2.0824882984161377,0.8641602993011475, ,1.125,-1.1647689342498815
136,2937928833,-4.05462646484375,-88.0204849243164,-162.98135375976562,9.779131889343262,-0.1027415171265602,0.2569790482521057,1.1325974464416504,-2.066300392150879,0.7732296586036682, ,1.1333333333333333,0.4134464263916051
137,2937937166,-4.158919811248779,-88.01771545410156,-162.8716278076172,9.849169731140137,-0.1167696863412857,0.275917649269104,1.2132312059402466,-1.9037525653839111,1.0072157382965088, ,1.1416666666666666,1.4233016967773473
138,2937945499,-4.244274139404297,-88.01654052734375,-162.7816925048828,9.776280403137209,-0.124864175915718,0.2807007431983948,1.118663311004639,-2.02447247505188,0.8240996599197388, ,1.15,1.0440945625305211
139,2937953832,-4.312412738800049,-88.01456451416016,-162.70848083496094,9.79035758972168,-0.1342538148164749,0.2933192253112793,1.1854395866394043,-2.041300773620605,0.8467170000076294, ,1.1583333333333332,-1.5752863883971209
140,2937962165,-4.383810520172119,-88.01445770263672,-162.63221740722656,9.789559364318848,-0.1293345838785171,0.2544459700584411,1.1596204042434692,-2.1709344387054443,0.7581173181533813, ,1.1666666666666667,-2.704313993453905
141,2937970498,-4.41616678237915,-88.01347351074219,-162.594970703125,9.807621955871582,-0.0975291803479194,0.2482473254203796,1.1541903018951416,-2.1206536293029785,0.6917764544487, ,1.175,1.8815302848816025
142,2937978831,-4.451719760894775,-88.01338195800781,-162.55506896972656,9.82651138305664,-0.1294279545545578,0.285804808139801,1.0994271039962769,-2.167015552520752,0.6070958971977234, ,1.1833333333333333,2.2744488716125595
143,2937987164,-4.424452781677246,-88.01229858398438,-162.57806396484375,9.807915687561035,-0.1135629639029502,0.2861548066139221,1.0792429447174072,-2.0808491706848145,0.4422425627708435, ,1.1916666666666667,0.7321321964263916
144,2937995497,-4.443028450012207,-88.01239013671875,-162.55535888671875,9.80796718597412,-0.1134824678301811,0.2980070114135742,1.0775525569915771,-2.1844587326049805,0.5347868204116821, ,1.2,-1.918201446533212
145,2938003830,-4.436230182647705,-88.01131439208984,-162.55813598632812,9.77046012878418,-0.1103308498859405,0.2541847825050354,1.0604933500289917,-2.1068990230560303,0.5257962942123413, ,1.2083333333333333,-1.3910472393035924
146,2938012163,-4.4565019607543945,-88.01140594482422,-162.532958984375,9.813970565795898,-0.1033011972904205,0.2748228907585144,1.158698320388794,-2.184330701828003,0.5452630519866943, ,1.2166666666666666,1.2780582904815905
147,2938020496,-4.458400249481201,-88.01081848144531,-162.5267333984375,9.840235710144045,-0.1214252561330795,0.2754857540130615,1.1042680740356443,-2.192937135696411,0.5571224093437195, ,1.225,0.5664628744125437
148,2938028829,-4.495924472808838,-88.0106201171875,-162.48428344726562,9.783270835876465,-0.1228537112474441,0.28426393866539,1.1731960773468018,-2.1475744247436523,0.6196467876434326, ,1.2333333333333334,0.2408087253570521
149,2938037162,-4.537387847900391,-88.00973510742188,-162.43832397460938,9.797761917114258,-0.1211193352937698,0.2794992327690124,1.1068296432495115,-2.1322827339172363,0.7279181480407715, ,1.2416666666666667,-0.5045878887176514
150,2938045495,-4.608458995819092,-88.0101318359375,-162.36231994628906,9.7874174118042,-0.1126467734575271,0.2758541405200958,1.1593385934829712,-2.2355847358703613,0.7539421916007996, ,1.25,-0.22726178169250133
151,2938053828,-4.664942741394043,-88.0100326538086,-162.30166625976562,9.815484046936035,-0.1160081177949905,0.2757115364074707,1.067767858505249,-2.2366862297058105,0.7798126339912415, ,1.2583333333333333,1.6832470893859899
152,2938062161,-4.73462438583374,-88.01101684570312,-162.2273406982422,9.789766311645508,-0.1155370324850082,0.3039082586765289,1.130420207977295,-2.2999022006988525,0.7404690980911255, ,1.2666666666666666,0.45524060726165416
153,2938070494,-4.819746017456055,-88.01219940185547,-162.13694763183594,9.814545631408691,-0.1232720986008644,0.2832988798618316,1.2026524543762207,-2.404254674911499,0.8904148936271667, ,1.275,-1.6289949417114293
154,2938078827,-4.910523414611816,-88.0132827758789,-162.04100036621094,9.80510425567627,-0.1074968501925468,0.2767583429813385,1.190485596656799,-2.3247992992401123,0.8296834826469421, ,1.2833333333333332,-0.6965249776840174
155,2938087160,-4.971381187438965,-88.01456451416016,-161.97503662109375,9.80003261566162,-0.1413833647966385,0.2716901302337646,1.1916126012802124,-2.43350601196289,0.7852683663368225, ,1.2916666666666667,-1.4830166101455848
156,2938095493,-5.016793727874756,-88.01603698730469,-161.9251708984375,9.790462493896484,-0.1105143576860427,0.2520413994789123,1.1046265363693235,-2.3522064685821533,0.6330685615539551, ,1.3,0.719983577728275
157,2938103826,-5.046468734741211,-88.01742553710938,-161.89132690429688,9.792195320129396,-0.1518324017524719,0.2836898565292358,1.0658210515975952,-2.394111394882202,0.6535599231719971, ,1.3083333333333333,0.6918042898178136
158,2938112159,-5.046074867248535,-88.01850891113281,-161.8875274658203,9.824313163757324,-0.1444196999073028,0.2635714709758758,1.0770403146743774,-2.296393156051636,0.4476471841335296, ,1.3166666666666667,-1.2301647663116508
159,2938120492,-5.023938655853272,-88.01801300048828,-161.9062957763672,9.78677749633789,-0.1241735517978668,0.2631871104240417,0.9797572493553162,-2.1641976833343506,0.4543837308883667, ,1.325,1.1212080717086845
160,2938128825,-4.99464225769043,-88.01880645751953,-161.9315643310547,9.790328025817873,-0.1210901662707328,0.2822582721710205,1.0579063892364502,-2.239734411239624,0.3305901288986206, ,1.3333333333333333,2.269386649131784
161,2938137158,-4.947718620300293,-88.02018737792969,-161.97450256347656,9.82012939453125,-0.106394737958908,0.3010102212429046,1.062414526939392,-2.3911402225494385,0.3355849087238312, ,1.3416666666666666,-1.975031197070944
162,2938145491,-4.915065288543701,-88.02088165283203,-162.00302124023438,9.810888290405272,-0.1101730316877365,0.2493410855531692,1.0771938562393188,-2.249518871307373,0.3162717521190643, ,1.35,-0.3372055292127918
163,2938153824,-4.8911638259887695,-88.02068328857422,-162.0220947265625,9.807416915893556,-0.1072728708386421,0.2953901290893554,1.156521201133728,-2.212096691131592,0.4496707320213318, ,1.3583333333333334,0.8618715405464208
164,2938162157,-4.878328323364258,-88.0204849243164,-162.0293731689453,9.798063278198242,-0.1088566854596138,0.2637056112289428,1.2393832206726074,-2.116529941558838,0.4154245257377624, ,1.3666666666666667,-1.50471031665802
165,2938170490,-4.89217472076416,-88.0218734741211,-162.01002502441406,9.8256196975708,-0.1069269105792045,0.2703116238117218,1.2404333353042605,-2.410914182662964,0.5933409929275513, ,1.375,0.043290853500369764
166,2938178823,-4.948934555053711,-88.02136993408203,-161.947021484375,9.827091217041016,-0.1043500825762748,0.264427125453949,1.316558837890625,-2.1347930431365967,0.706043541431427, ,1.3833333333333333,0.9773683547973633
167,2938187156,-4.989513874053955,-88.02088165283203,-161.90077209472656,9.777413368225098,-0.1033418849110603,0.2866010963916778,1.2475028038024902,-2.172163963317871,0.725254237651825, ,1.3916666666666666,-3.4222725033760195
168,2938195489,-5.049724578857422,-88.02147674560547,-161.8358612060547,9.773431777954102,-0.1093325018882751,0.2073892503976822,1.1532424688339231,-2.302027940750122,0.7002035975456238, ,1.4,0.8243501186370885
169,2938203822,-5.05606746673584,-88.02117156982422,-161.82376098632812,9.798222541809082,-0.1357539147138595,0.3003402650356293,1.2624871730804443,-2.1966512203216557,0.5813022255897522, ,1.4083333333333332,2.9643407464029288
170,2938212155,-5.093462944030762,-88.02196502685547,-161.78077697753906,9.819844245910645,-0.1361548453569412,0.2567949295043945,1.2242963314056396,-2.2260563373565674,0.6149081587791443, ,1.4166666666666667,-0.9387516975401624
171,2938220488,-5.07067346572876,-88.02306365966797,-161.798095703125,9.82521629333496,-0.1314421594142913,0.2846944034099579,1.2110538482666016,-2.308867216110229,0.4479545354843139, ,1.425,1.9485729932785105
172,2938228821,-5.077536582946777,-88.02355194091797,-161.78768920898438,9.785127639770508,-0.1345790773630142,0.2892711460590362,1.0234551429748535,-2.2741854190826416,0.4759765267372131, ,1.4333333333333333,-0.86493372917176
173,2938237154,-5.017219066619873,-88.02335357666016,-161.84275817871094,9.859106063842772,-0.1226480081677436,0.2702788412570953,1.2119760513305664,-2.2012104988098145,0.3017997443675995, ,1.4416666666666667,-1.5483856201171928
174,2938245487,-4.984140396118164,-88.0239486694336,-161.87193298339844,9.777172088623049,-0.101761981844902,0.2634647190570831,1.0514003038406372,-2.2064871788024902,0.3188844323158264, ,1.45,3.285239338874831
175,2938253820,-4.943327903747559,-88.02315521240234,-161.9082489013672,9.823760986328123,-0.142195463180542,0.3250328302383423,1.107162594795227,-2.1166067123413086,0.3864803910255432, ,1.4583333333333333,0.7629418373107963
176,2938262153,-4.906857013702393,-88.0239486694336,-161.9404754638672,9.780163764953612,-0.0933291837573051,0.2761804163455963,1.0709439516067505,-2.2208824157714844,0.3038744926452636, ,1.4666666666666666,-3.142286539077798
177,2938270486,-4.859917640686035,-88.02494049072266,-161.98275756835938,9.805553436279297,-0.1194905042648315,0.2726613879203796,1.136183500289917,-2.3431646823883057,0.3424494862556457, ,1.475,1.653569340705907
178,2938278819,-4.856846809387207,-88.02375030517578,-161.9813232421875,9.845457077026367,-0.13925801217556,0.3037399053573608,1.1118755340576172,-2.0126640796661377,0.4624522030353546, ,1.4833333333333334,0.4358410835266149
179,2938287152,-4.837543487548828,-88.02315521240234,-161.9960479736328,9.785884857177734,-0.0926202312111854,0.2799254059791565,1.1286273002624512,-2.169038772583008,0.4716732800006866, ,1.4916666666666667,-3.6221641302108907
180,2938295485,-4.8479084968566895,-88.02375030517578,-161.98114013671875,9.77816677093506,-0.1245979219675064,0.2433705031871795,1.1106716394424438,-2.220113754272461,0.5010784864425659, ,1.5,2.0221638679504466
181,2938303818,-4.83664608001709,-88.02355194091797,-161.98780822753906,9.843445777893066,-0.1200453490018844,0.3136281371116638,1.124580144882202,-2.214325189590454,0.5004381537437439, ,1.5083333333333333,0.917129516601566
182,2938312151,-4.824755668640137,-88.0241470336914,-161.99508666992188,9.766411781311035,-0.1010067984461784,0.2586559951305389,1.1454557180404663,-2.245728015899658,0.4063826203346252, ,1.5166666666666666,-1.6063892841339182
183,2938320484,-4.812008857727051,-88.02513885498047,-162.00218200683594,9.846073150634766,-0.1290635615587234,0.2868549823760986,1.2518575191497805,-2.356894016265869,0.4889117181301117, ,1.525,2.615963816642772
184,2938328817,-4.783284664154053,-88.02761840820312,-162.02655029296875,9.802481651306152,-0.1317322254180908,0.3022553920745849,1.0977107286453247,-2.446774244308472,0.3163998126983642, ,1.5333333333333332,-1.7091715335844793
185,2938337150,-4.707864284515381,-88.02999877929688,-162.0977020263672,9.774550437927246,-0.1353733837604522,0.2583687901496887,1.086696743965149,-2.4858105182647705,0.2113814651966095, ,1.5416666666666667,-1.7193317413328977
186,2938345483,-4.598508358001709,-88.0329818725586,-162.2034149169922,9.77607250213623,-0.1593254059553146,0.2735998630523681,1.0058839321136477,-2.464986085891724,-0.0172127671539783, ,1.55,2.348867654800422
187,2938353816,-4.4320068359375,-88.03466796875,-162.3671875,9.79574489593506,-0.1337621510028839,0.2975165843963623,0.8951022028923035,-2.347416400909424,-0.1578861325979232, ,1.5583333333333333,0.08787274360657094
188,2938362149,-4.260040760040283,-88.03716278076172,-162.5369415283203,9.73215675354004,-0.1287867873907089,0.2750644087791443,0.8779151439666748,-2.495057344436645,-0.2796050012111664, ,1.5666666666666667,-1.4950686693191564
189,2938370482,-4.03900146484375,-88.03805541992188,-162.75503540039062,9.83876609802246,-0.1540329158306121,0.2725987732410431,0.9590610265731812,-2.3065106868743896,-0.3751973211765289, ,1.575,0.5792945623397863
190,2938378815,-3.8652639389038086,-88.04045867919922,-162.9260711669922,9.806676864624023,-0.098929226398468,0.284719318151474,0.8885962963104248,-2.3503623008728027,-0.273150235414505, ,1.5833333333333333,2.990759611129768
191,2938387148,-3.66988468170166,-88.04185485839844,-163.1193389892578,9.840160369873049,-0.0928878411650657,0.3224447667598724,0.8410818576812744,-2.359865188598633,-0.2750200629234314, ,1.5916666666666666,-1.0955053567884736
192,2938395481,-3.5313210487365723,-88.0446548461914,-163.2552490234375,9.852173805236816,-0.0934189930558204,0.2664608955383301,0.9065774083137512,-2.4806618690490723,-0.1319133043289184, ,1.6,-5.242773592471986
193,2938403814,-3.40374493598938,-88.04776763916016,-163.3797607421875,9.816789627075195,-0.1099181696772575,0.2350652068853378,0.9420276284217834,-2.558093786239624,-0.0026894949842244, ,1.6083333333333334,-0.31512737274170455
194,2938412147,-3.3379530906677246,-88.05067443847656,-163.4425506591797,9.840431213378906,-0.0708698853850364,0.2612087726593017,0.9541943073272704,-2.5126795768737797,0.166326031088829, ,1.6166666666666667,4.3158110976219355
195,2938420480,-3.2761001586914062,-88.05238342285156,-163.49986267089844,9.79605197906494,-0.0907205268740654,0.3069953918457031,1.1203281879425049,-2.428895235061645,0.2818462252616882, ,1.625,-1.4782378077507037
196,2938428813,-3.285520315170288,-88.0553970336914,-163.48716735839844,9.858758926391602,-0.0874911472201347,0.2365714758634567,0.9654390215873718,-2.494647264480591,0.4761301875114441, ,1.6333333333333333,-5.157712697982806
197,2938437146,-3.29300856590271,-88.05730438232422,-163.47511291503906,9.778133392333984,-0.1095600873231887,0.22103351354599,1.1187913417816162,-2.4457240104675293,0.5644480586051941, ,1.6416666666666666,2.592583000659948
198,2938445479,-3.303359270095825,-88.05973052978516,-163.459716796875,9.850156784057615,-0.1131811290979385,0.2797811925411224,1.176628351211548,-2.473618030548096,0.4893984198570251, ,1.65,3.9122682809829854
199,2938453812,-3.298419952392578,-88.06013488769531,-163.46046447753906,9.772472381591797,-0.1399099230766296,0.2862379848957062,1.0675629377365112,-2.2632226943969727,0.521902859210968, ,1.6583333333333332,-0.46743214130397703
200,2938462145,-3.307314395904541,-88.06214904785156,-163.44769287109375,9.78675651550293,-0.0777601450681686,0.2719906568527221,1.0261189937591553,-2.397390127182007,0.4832765460014343, ,1.6666666666666667,-1.5078878402709783
201,2938470478,-3.252422332763672,-88.06417083740234,-163.49888610839844,9.79406452178955,-0.1087600588798523,0.2611065208911896,1.0304605960845947,-2.489793300628662,0.3046557307243347, ,1.675,-3.6013001203537094
202,2938478811,-3.203305244445801,-88.06719970703125,-163.54489135742188,9.848856925964355,-0.1130939573049545,0.2119689881801605,0.9622371792793274,-2.562166213989258,0.2357405871152877, ,1.6833333333333333,2.0589154958725047
203,2938487144,-3.1418685913085938,-88.0686264038086,-163.60238647460938,9.770516395568848,-0.0876636877655983,0.2954217791557312,1.0485570430755615,-2.3829946517944336,0.2863799631595611, ,1.6916666666666667,6.008241176605242
204,2938495477,-3.107599258422852,-88.07115936279297,-163.6322021484375,9.820688247680664,-0.1009346842765808,0.3121063411235809,1.0825471878051758,-2.4024360179901123,0.3112770020961761, ,1.7,-1.7958122491836601
205,2938503810,-3.076666831970215,-88.07308959960938,-163.65911865234375,9.779129981994627,-0.0717616826295852,0.2654915750026703,1.056548833847046,-2.425386428833008,0.4073047637939453, ,1.7083333333333333,-3.129572868347175
206,2938512143,-3.1036202907562256,-88.07511901855469,-163.62818908691406,9.830435752868652,-0.084275908768177,0.2599467933177948,1.0555498600006104,-2.447516918182373,0.5560466647148132, ,1.7166666666666666,-1.1450734734535288
207,2938520476,-3.1386070251464844,-88.07572937011719,-163.58753967285156,9.841059684753418,-0.0829895734786987,0.2464070171117782,1.2457867860794067,-2.3088927268981934,0.687652587890625, ,1.7249999999999999,3.024845123290863
208,2938528809,-3.218359470367432,-88.07665252685547,-163.50180053710938,9.808050155639648,-0.0699170231819152,0.3103608787059784,1.2732195854187012,-2.2644009590148926,0.7839109301567078, ,1.7333333333333334,-0.5416810512544874
209,2938537142,-3.3032052516937256,-88.07766723632812,-163.4111328125,9.849802017211914,-0.1260879635810852,0.2373789995908737,1.2719899415969849,-2.382482051849365,0.8846259713172913, ,1.7416666666666667,-4.470757842063922
210,2938545475,-3.4200422763824463,-88.07796478271484,-163.2884063720703,9.809897422790527,-0.1016868278384208,0.2358482480049133,1.2984241247177124,-2.27984619140625,0.9315001368522644, ,1.75,3.957451879978196
211,2938553808,-3.515755414962769,-88.07665252685547,-163.18597412109375,9.77341651916504,-0.1198490262031555,0.3033365309238434,1.3707841634750366,-2.104414224624634,0.9487383961677552, ,1.7583333333333333,2.6594352722168075
212,2938562141,-3.691873073577881,-88.07644653320312,-163.00289916992188,9.907835960388184,-0.0925703644752502,0.2801721692085266,1.3999589681625366,-2.184868574142456,1.1810595989227295, ,1.7666666666666666,-2.804564237594615
213,2938570474,-3.804953813552856,-88.07633972167969,-162.88449096679688,9.763798713684082,-0.1280651539564132,0.2565937936306,1.2066482305526731,-2.253053903579712,1.0031944513320925, ,1.775,-0.35209715366363525
214,2938578807,-3.903146743774414,-88.07644653320312,-162.77964782714844,9.803943634033203,-0.1047471761703491,0.2743038833141327,1.3653284311294556,-2.1810011863708496,0.8667473196983337, ,1.7833333333333332,3.3993476629256563
215,2938587140,-3.9900829792022714,-88.07633972167969,-162.68624877929688,9.771328926086426,-0.130484327673912,0.3132495880126953,1.347910761833191,-2.256025075912476,0.902453601360321, ,1.7916666666666667,0.35009443759906134
216,2938595473,-4.091446876525879,-88.0770492553711,-162.5786590576172,9.894112586975098,-0.1160873398184776,0.2801387906074524,1.3161492347717283,-2.305230140686035,0.8706919550895691, ,1.8,-2.830526232719434
217,2938603806,-4.1815056800842285,-88.07613372802734,-162.48292541503906,9.813892364501951,-0.1121906191110611,0.2660741508007049,1.254905343055725,-2.147010803222656,0.918949007987976, ,1.8083333333333333,3.6329197883606064
218,2938612139,-4.319648742675781,-88.07563018798828,-162.3381805419922,9.769407272338867,-0.1220882683992385,0.3406874537467956,1.3359745740890503,-2.113276720046997,1.0331885814666748, ,1.8166666666666667,-2.095293402671821
219,2938620472,-4.490406036376953,-88.07461547851562,-162.16156005859375,9.767292022705078,-0.0868128016591072,0.231152594089508,1.267635703086853,-2.1435275077819824,1.2474517822265625, ,1.825,-3.764405250549327
220,2938628805,-4.691152572631836,-88.07491302490234,-161.9538116455078,9.877299308776855,-0.115404799580574,0.2779473662376404,1.3973461389541626,-2.294010877609253,1.2739622592926023, ,1.8333333333333333,1.3919520378112846
221,2938637138,-4.849576950073242,-88.07176971435547,-161.78919982910156,9.820146560668944,-0.0914617851376533,0.254351794719696,1.2999097108840942,-1.9097716808319087,1.219532132148743, ,1.8416666666666666,0.3164720535278285
222,2938645471,-5.078125,-88.07025146484375,-161.55393981933594,9.805442810058594,-0.0692854151129722,0.2832219004631042,1.3661222457885742,-2.0530831813812256,1.4090006351470947, ,1.8499999999999999,-0.29296696186055016
223,2938653804,-5.322123527526856,-88.0680160522461,-161.3028106689453,9.751972198486328,-0.1262336522340774,0.2494690120220184,1.406644344329834,-2.0383553504943848,1.5642486810684204, ,1.8583333333333334,-2.2786617279052077
224,2938662137,-5.616116523742676,-88.06599426269531,-161.00262451171875,9.813405990600586,-0.0865252017974853,0.2452442049980163,1.3280341625213623,-2.0883030891418457,1.6724176406860352, ,1.8666666666666667,3.5333847999572896
225,2938670470,-5.874889850616455,-88.06437683105469,-160.7372589111328,9.853754043579102,-0.1300791352987289,0.308358758687973,1.3467836380004885,-2.1374309062957764,1.6164759397506714, ,1.875,2.6657348871231203
226,2938678803,-6.125927925109863,-88.06285858154297,-160.47998046875,9.787482261657717,-0.1527023464441299,0.2896731197834015,1.3056471347808838,-2.11012601852417,1.5002385377883911, ,1.8833333333333333,-1.1344993114471507
227,2938687136,-6.318329811096191,-88.06134033203125,-160.2815399169922,9.726442337036133,-0.1520823389291763,0.2894504368305206,1.2743209600448608,-2.105336427688598,1.349908709526062, ,1.8916666666666666,0.8449476957321167
228,2938695469,-6.4672040939331055,-88.06013488769531,-160.12753295898438,9.841525077819824,-0.1385989636182785,0.3037555813789367,1.207339644432068,-2.117579936981201,1.08088219165802, ,1.9,-2.588787674903875
229,2938703802,-6.519782066345215,-88.05963134765625,-160.07064819335938,9.751470565795898,-0.1424486637115478,0.2463039755821228,1.0873371362686155,-2.2049756050109863,0.7631889581680298, ,1.9083333333333332,-1.822550296783561
230,2938712135,-6.560646057128906,-88.06053924560547,-160.02540588378906,9.825827598571776,-0.1387084424495697,0.2733797430992126,1.072941780090332,-2.259303331375122,0.6196979284286499, ,1.9166666666666667,2.178806662559456
231,2938720468,-6.553028106689453,-88.06083679199219,-160.0290069580078,9.772035598754885,-0.1326109170913696,0.2826174199581146,1.0594432353973389,-2.28043532371521,0.5079175233840942, ,1.925,-1.3497877120971697
232,2938728801,-6.544927597045898,-88.06214904785156,-160.03372192382812,9.85398292541504,-0.1005813255906105,0.2508832812309265,0.9831128120422364,-2.33486557006836,0.4066388010978699, ,1.9333333333333333,0.8011454343795812
233,2938737134,-6.477336883544922,-88.06356048583984,-160.09866333007812,9.813798904418944,-0.151809960603714,0.2959698438644409,0.8902612328529358,-2.3486204147338867,0.2497516125440597, ,1.9416666666666667,0.9717392921447772
234,2938745467,-6.418726444244385,-88.06407165527344,-160.15353393554688,9.734086990356444,-0.0774745047092437,0.2670789361000061,1.0257091522216797,-2.176774501800537,0.2196036279201507, ,1.95,-3.1292000412941103
235,2938753800,-6.3861470222473145,-88.06599426269531,-160.18287658691406,9.854395866394045,-0.1338275223970413,0.2438165098428726,0.9630568027496338,-2.451205253601074,0.3842006921768188, ,1.9583333333333333,-0.20449340343475164
236,2938762133,-6.342310428619385,-88.06639862060547,-160.22369384765625,9.879761695861816,-0.1065316870808601,0.2636707127094269,0.9498399496078492,-2.2231619358062744,0.2728044092655182, ,1.9666666666666666,1.5972527861595243
237,2938770466,-6.3109049797058105,-88.06700897216797,-160.2507781982422,9.746670722961426,-0.1167867183685302,0.2704373896121979,1.080062747001648,-2.26107120513916,0.4140925407409668, ,1.9749999999999999,-0.3696370124816557
238,2938778799,-6.33554744720459,-88.06751251220703,-160.222900390625,9.885161399841309,-0.1523249447345733,0.257510095834732,0.9885942339897156,-2.303847074508667,0.5454936027526855, ,1.9833333333333334,-0.45701444149014314
239,2938787132,-6.322561740875244,-88.06832122802734,-160.2313690185547,9.775816917419434,-0.0982147306203842,0.2628204822540283,1.1131306886672974,-2.3239541053771973,0.4818422198295593, ,1.9916666666666667,-1.110701858997345
240,2938795465,-6.339371204376221,-88.06883239746094,-160.21051025390625,9.827319145202637,-0.1349940001964569,0.2389983981847763,1.0499659776687622,-2.241501808166504,0.5224151611328125, ,2.0,3.13427925109864
241,2938803798,-6.3104681968688965,-88.06851959228516,-160.23582458496094,9.832290649414062,-0.1356392502784729,0.3150584697723388,1.0086758136749268,-2.171037197113037,0.4306649565696716, ,2.0083333333333333,2.6272425055503916
242,2938812131,-6.31108283996582,-88.06954193115234,-160.22994995117188,9.777458190917969,-0.1023183241486549,0.2827857732772827,1.197990655899048,-2.287940502166748,0.4587894082069397, ,2.0166666666666666,-4.109589457511911
243,2938820464,-6.308100700378418,-88.06954193115234,-160.22750854492188,9.830666542053224,-0.1265593022108078,0.2465653121471405,1.2198139429092407,-2.222777843475342,0.5374763607978821, ,2.025,-4.7246727347374105
244,2938828797,-6.291251182556152,-88.07054901123047,-160.239990234375,9.851916313171388,-0.1323169469833374,0.2040412276983261,1.0916916131973269,-2.2693188190460205,0.3848923444747925, ,2.033333333333333,0.8799648284912127
245,2938837130,-6.241101264953613,-88.06954193115234,-160.28631591796875,9.810676574707031,-0.1217533275485038,0.261231392621994,1.032829999923706,-2.096678733825684,0.352208524942398, ,2.0416666666666665,2.477008402347572
246,2938845463,-6.223992824554443,-88.06963348388672,-160.29925537109375,9.809062004089355,-0.1282559186220169,0.2453247010707855,1.063438892364502,-2.162379264831543,0.3954197466373443, ,2.05,2.482438087463386
247,2938853796,-6.189875602722168,-88.06883239746094,-160.32748413085938,9.818516731262209,-0.1249593645334243,0.3026053607463836,1.274859070777893,-2.1045937538146973,0.4260287582874298, ,2.058333333333333,2.141767144203193
248,2938862129,-6.164017200469971,-88.06781005859375,-160.34828186035156,9.729928016662598,-0.1309751719236374,0.2810208201408386,1.1989383697509766,-2.078211069107056,0.3722132742404938, ,2.0666666666666664,-0.47252476215372496
249,2938870462,-6.152008533477783,-88.06771850585938,-160.35488891601562,9.86594581604004,-0.1205137893557548,0.2947299480438232,1.2284713983535769,-2.2177059650421143,0.5019749402999878, ,2.075,-2.105163931846773
250,2938878795,-6.129749298095703,-88.06842041015625,-160.37217712402344,9.78787326812744,-0.1634256541728973,0.2459347546100616,1.1696611642837524,-2.25738263130188,0.3665012717247009, ,2.0833333333333335,0.7916772365570139
251,2938887128,-6.081114292144775,-88.0680160522461,-160.41485595703125,9.807531356811523,-0.1184158474206924,0.3079245686531067,1.2883319854736328,-2.1570770740509038,0.362403005361557, ,2.091666666666667,2.995117306709302
252,2938895461,-6.068012714385986,-88.0687255859375,-160.42263793945312,9.786659240722656,-0.1164502128958702,0.2958533763885498,1.1890512704849243,-2.2124295234680176,0.4086110889911651, ,2.1,-2.7935063838958847
253,2938903794,-6.069618225097656,-88.0687255859375,-160.4156951904297,9.813604354858398,-0.1215133294463157,0.2613661289215088,1.2155876159667969,-2.2415785789489746,0.5554319024085999, ,2.1083333333333334,-1.6469550132751536
254,2938912127,-6.033164024353027,-88.0700454711914,-160.44586181640625,9.807862281799316,-0.1317891180515289,0.2684041261672973,1.323090434074402,-2.2947795391082764,0.3106622695922851, ,2.1166666666666667,-0.31770408153533936
255,2938920460,-6.007681846618652,-88.0700454711914,-160.4661102294922,9.786014556884766,-0.121698759496212,0.2560710608959198,1.213282346725464,-2.2258260250091557,0.4457773566246032, ,2.125,-0.332406163215639
256,2938928793,-6.017395973205566,-88.07186889648438,-160.45083618164062,9.83742904663086,-0.099760040640831,0.2628640234470367,1.229521632194519,-2.397057056427002,0.4835327267646789, ,2.1333333333333333,1.131116151809696
257,2938937126,-6.012572288513184,-88.07318878173828,-160.44915771484375,9.731603622436523,-0.120055541396141,0.2749229967594147,1.352674961090088,-2.387733221054077,0.5175740718841553, ,2.1416666666666666,2.4172210693359464
258,2938945459,-6.053303241729736,-88.07542419433594,-160.40213012695312,9.833382606506348,-0.1104131415486335,0.3031510412693023,1.339329957962036,-2.480252265930176,0.6051234602928162, ,2.15,-0.2056127786636388
259,2938953792,-6.093247890472412,-88.07624053955078,-160.3560791015625,9.785761833190918,-0.1244145259261131,0.2714961171150207,1.313587665557861,-2.3643476963043213,0.700843870639801, ,2.158333333333333,-5.612448155879992
260,2938962125,-6.147488594055176,-88.07715606689453,-160.29518127441406,9.84614086151123,-0.1113133952021598,0.2096102386713028,1.352674961090088,-2.280076503753662,0.680557370185852, ,2.1666666666666665,2.887317538261428
261,2938970458,-6.152539253234863,-88.07746124267578,-160.2840576171875,9.759725570678713,-0.1495152711868286,0.3196180760860443,1.3133058547973633,-2.2961881160736084,0.5658056139945984, ,2.175,2.4464884400367826
262,2938978791,-6.150991916656494,-88.07878875732422,-160.27980041503906,9.813122749328612,-0.1106623336672782,0.250385046005249,1.263306736946106,-2.3354804515838623,0.4460847377777099, ,2.183333333333333,-0.38237214088440297
263,2938987124,-6.1263203620910645,-88.07908630371094,-160.29945373535156,9.797505378723145,-0.1085342690348625,0.3132452070713043,1.165486216545105,-2.221035957336426,0.4496195018291473, ,2.1916666666666664,0.5967915058139521
264,2938995457,-6.0688958168029785,-88.08082580566406,-160.35289001464844,9.816840171813965,-0.1359335929155349,0.2603315711021423,1.062824249267578,-2.36293888092041,0.2099983245134353, ,2.2,-2.1861881017682236
265,2939003790,-5.957795143127441,-88.08235168457031,-160.4598388671875,9.792667388916016,-0.1255929172039032,0.2768087387084961,1.0633363723754885,-2.349055767059326,0.0829773098230362, ,2.2083333333333335,-2.1756604313850474
266,2939012123,-5.860872268676758,-88.08306884765625,-160.55271911621094,9.820894241333008,-0.1499643474817276,0.2240705639123916,1.062388896942139,-2.2317428588867188,0.0650217458605766, ,2.216666666666667,2.6982110738754344
267,2939020456,-5.707895278930664,-88.0828628540039,-160.7030792236328,9.79010009765625,-0.1123760119080543,0.3217789232730865,0.9107268452644348,-2.165273666381836,-0.071233183145523, ,2.225,2.284280955791484
268,2939028789,-5.580350875854492,-88.0833740234375,-160.82839965820312,9.830817222595217,-0.1359885036945343,0.2621419131755829,0.835344135761261,-2.1748275756835938,-0.0570941269397735, ,2.2333333333333334,-3.8282078504562485
269,2939037122,-5.380681991577148,-88.08245849609375,-161.0258026123047,9.79212474822998,-0.1039338633418083,0.2579754590988159,0.8670288920402527,-2.05451774597168,-0.251198798418045, ,2.2416666666666667,1.1685794591903687
270,2939045455,-5.182961463928223,-88.08133697509766,-161.22120666503906,9.796422004699709,-0.1448337137699127,0.2816182374954223,0.8681048154830933,-1.9879717826843264,-0.3224831819534302, ,2.25,2.906579375267036
271,2939053788,-4.981437683105469,-88.07929229736328,-161.42066955566406,9.831353187561035,-0.0667755156755447,0.3064184486865997,0.8431053161621094,-1.937819242477417,-0.2509426474571228, ,2.2583333333333333,-0.9402912855148333
272,2939062121,-4.787394046783447,-88.07736206054688,-161.61289978027344,9.829784393310549,-0.1318974047899246,0.2659467160701751,0.7671079635620117,-1.819891571998596,-0.2987900972366333, ,2.2666666666666666,-2.8131884336471664
273,2939070454,-4.550286293029785,-88.07613372802734,-161.84848022460938,9.80241870880127,-0.1032976955175399,0.2595319747924804,0.7778915166854858,-2.016378402709961,-0.4056782722473144, ,2.275,0.12858510017395197
274,2939078787,-4.346516609191895,-88.07624053955078,-162.0511932373047,9.79579734802246,-0.1355786472558975,0.2680898010730743,0.699332594871521,-2.08008074760437,-0.3642856478691101, ,2.283333333333333,1.249684095382694
275,2939087120,-4.162079811096191,-88.07532501220703,-162.2333526611328,9.830510139465332,-0.1087696179747581,0.2803600430488586,0.8563991189002991,-2.0715510845184326,-0.1955390572547912, ,2.2916666666666665,1.6922235488891673
276,2939095453,-3.986815929412842,-88.07501983642578,-162.406494140625,9.809696197509766,-0.0950264036655426,0.2962935268878937,0.8407232165336609,-2.0776729583740234,-0.2448208779096603, ,2.3,-1.3261985778808594
277,2939103786,-3.847587823867798,-88.07501983642578,-162.54293823242188,9.790480613708496,-0.1509285122156143,0.258256733417511,0.9227144122123718,-2.213018655776977,-0.021848939359188, ,2.308333333333333,-0.37302911281585693
278,2939112119,-3.708644151687622,-88.07654571533203,-162.67808532714844,9.778265953063965,-0.0769369080662727,0.2900763750076294,1.032829999923706,-2.328359603881836,-0.1070675104856491, ,2.3166666666666664,2.0291268825531485
279,2939120452,-3.583529233932495,-88.07685089111328,-162.79954528808594,9.84850025177002,-0.1222392544150352,0.292075514793396,1.0233526229858398,-2.2511582374572754,0.0368972979485988, ,2.325,-0.054370164871233584
280,2939128785,-3.4843361377716064,-88.07725524902344,-162.89511108398438,9.787129402160645,-0.1013701111078262,0.2891702055931091,1.0117493867874146,-2.192988395690918,0.0611539855599403, ,2.3333333333333335,-1.3460165262222326
281,2939137118,-3.398693561553955,-88.07665252685547,-162.97679138183594,9.81926155090332,-0.0987474769353866,0.2696419060230255,1.0511698722839355,-2.129542112350464,0.2034923285245895, ,2.341666666666667,-2.4532860517501938
282,2939145451,-3.329780340194702,-88.07715606689453,-163.04116821289062,9.828371047973633,-0.1055082082748413,0.248282104730606,1.1147699356079102,-2.207127332687378,0.1867918074131012, ,2.35,1.5520602464675903
283,2939153784,-3.236355781555176,-88.07644653320312,-163.1315460205078,9.790263175964355,-0.1196290776133537,0.2955095767974853,0.9271199703216552,-2.0667612552642822,0.1719099283218383, ,2.3583333333333334,0.9080976247787564
284,2939162117,-3.158196449279785,-88.07572937011719,-163.20538330078125,9.78913402557373,-0.0748621821403503,0.2634170651435852,1.11005699634552,-2.1174521446228027,0.1534164696931839, ,2.3666666666666667,-2.433330416679386
285,2939170450,-3.0887911319732666,-88.07501983642578,-163.27163696289062,9.82460594177246,-0.1123054847121238,0.254954069852829,0.9489177465438844,-2.1194498538970947,0.2659654021263122, ,2.375,0.8843100070953387
286,2939178783,-3.0400230884552,-88.07379913330078,-163.31686401367188,9.785853385925291,-0.0839356109499931,0.2781555652618408,1.0091111660003662,-2.059384346008301,0.2720103561878204, ,2.3833333333333333,2.305269241333015
287,2939187116,-2.985302686691284,-88.07288360595703,-163.36764526367188,9.819916725158691,-0.0983475521206855,0.2933752238750458,1.0399763584136963,-2.0843327045440674,0.3304876387119293, ,2.3916666666666666,-0.2534830570220947
288,2939195449,-2.9769692420959477,-88.07228088378906,-163.37191772460938,9.794462203979492,-0.1093741580843925,0.2739308476448059,1.069791555404663,-2.116043329238892,0.4337643086910248, ,2.4,-1.7791700363159269
289,2939203782,-2.9272751808166504,-88.07146453857422,-163.4173583984375,9.80425262451172,-0.1014141216874122,0.2637223899364471,1.0852110385894775,-2.1201157569885254,0.3506204187870025, ,2.408333333333333,1.2064683437347412
290,2939212115,-2.9135220050811768,-88.07096099853516,-163.42652893066406,9.82669448852539,-0.1039493456482887,0.2940386533737182,1.1324437856674194,-2.1307199001312256,0.4127093851566314, ,2.4166666666666665,0.1975429058074969
291,2939220448,-2.8403639793396,-88.07034301757812,-163.49647521972656,9.79466438293457,-0.0934990793466568,0.2670147716999054,0.9626469612121582,-2.134101152420044,0.2494442164897918, ,2.425,0.18315553665161488
292,2939228781,-2.8433797359466557,-88.07096099853516,-163.48980712890625,9.808204650878906,-0.0986471399664878,0.2970912456512451,1.0207912921905518,-2.2811524868011475,0.4719806909561157, ,2.433333333333333,-0.8449047803878802
293,2939237114,-2.8066656589508057,-88.07105255126953,-163.5230255126953,9.806076049804688,-0.0999006107449531,0.2529330253601074,0.9936146140098572,-2.2332794666290283,0.3922948539257049, ,2.4416666666666664,-2.6213407516480345
294,2939245447,-2.8008875846862797,-88.07136535644531,-163.52487182617188,9.783921241760254,-0.0980533435940742,0.2534022331237793,1.0323946475982666,-2.1617648601531982,0.4422682225704193, ,2.45,1.3754564523697308
295,2939253780,-2.78151273727417,-88.07146453857422,-163.54026794433594,9.783860206604004,-0.1008646860718727,0.2758572995662689,1.0493000745773315,-2.2471883296966557,0.4650904834270477, ,2.4583333333333335,3.367962241172803
296,2939262113,-2.7840118408203125,-88.07267761230469,-163.53297424316406,9.800829887390137,-0.1016303971409797,0.3095349371433258,1.1360554695129397,-2.283662796020508,0.471929520368576, ,2.466666666666667,0.02123236656188965
297,2939270446,-2.747541904449463,-88.07308959960938,-163.5652313232422,9.827978134155272,-0.111770175397396,0.2762111723423004,1.0938175916671753,-2.290553092956543,0.3937292397022247, ,2.475,-2.6591813564300626
298,2939278779,-2.707717180252075,-88.07349395751953,-163.6008758544922,9.797236442565918,-0.0886610895395279,0.2652152478694916,1.0808055400848389,-2.2537710666656494,0.302824318408966, ,2.4833333333333334,1.913164258003242
299,2939287112,-2.660269498825073,-88.07379913330078,-163.64439392089844,9.80910873413086,-0.0880635678768158,0.308097243309021,1.0551655292510986,-2.275158643722534,0.349006712436676, ,2.4916666666666667,3.086019158363351
300,2939295445,-2.636242628097534,-88.07410430908203,-163.66383361816406,9.822670936584473,-0.1033551469445228,0.3166489005088806,1.1034740209579468,-2.155233144760132,0.3716497421264648, ,2.5,-1.3408988714218175
301,2939303778,-2.6171555519104004,-88.07410430908203,-163.67823791503906,9.756787300109863,-0.1224817112088203,0.2857489287853241,1.146301031112671,-2.26091742515564,0.4681898355484009, ,2.5083333333333333,-2.3810273408889877
302,2939312111,-2.5830636024475098,-88.07553100585938,-163.70877075195312,9.843530654907228,-0.0924974456429481,0.2769651114940643,0.9818833470344543,-2.2698824405670166,0.319934606552124, ,2.5166666666666666,-1.3359260559082085
303,2939320444,-2.5291242599487305,-88.07522583007812,-163.7592315673828,9.811149597167969,-0.1050290092825889,0.2634834945201874,0.9957151412963868,-2.1908113956451416,0.3260820806026459, ,2.525,1.0617023706436193
304,2939328777,-2.48635482788086,-88.07420349121094,-163.79791259765625,9.855130195617676,-0.1000191271305084,0.2946601510047912,1.08692729473114,-2.109332323074341,0.2971379458904266, ,2.533333333333333,-0.7793855667114329
305,2939337110,-2.427750587463379,-88.07410430908203,-163.85264587402344,9.782600402832031,-0.0844597890973091,0.2504937350749969,1.0353403091430664,-2.2115843296051025,0.3059748709201813, ,2.5416666666666665,0.9782481193542516
306,2939345443,-2.4128575325012207,-88.07522583007812,-163.86358642578125,9.817840576171877,-0.0842670127749443,0.310964286327362,1.0395665168762207,-2.291423797607422,0.4005425870418548, ,2.55,1.076992750167852
307,2939353776,-2.3643016815185547,-88.07685089111328,-163.90780639648438,9.808177947998049,-0.1011441200971603,0.268443614244461,1.10165536403656,-2.4193155765533447,0.3426032066345215, ,2.558333333333333,-0.8454465866088867
308,2939362109,-2.3502392768859863,-88.07725524902344,-163.9185791015625,9.789996147155762,-0.0860837325453758,0.2968735098838806,0.9718681573867798,-2.2512097358703613,0.4026173651218414, ,2.5666666666666664,0.39638042449966093
309,2939370442,-2.3090267181396484,-88.07756805419922,-163.95574951171875,9.812393188476562,-0.0817755460739135,0.2750499546527862,1.054064154624939,-2.2259795665740967,0.3778227865695953, ,2.575,-1.3024789094923968
310,2939378775,-2.2945168018341064,-88.07725524902344,-163.9664306640625,9.828645706176758,-0.0927876755595207,0.2751655280590057,1.023045301437378,-2.1308484077453613,0.408098816871643, ,2.5833333333333335,-0.7454431056976336
311,2939387108,-2.257797718048096,-88.0770492553711,-163.99920654296875,9.799725532531738,-0.1033326312899589,0.262625902891159,1.0496585369110107,-2.215887546539306,0.3953685462474823, ,2.591666666666667,-0.33315181732177734
312,2939395441,-2.2385241985321045,-88.07756805419922,-164.0138397216797,9.809901237487791,-0.1058722212910652,0.2696129977703094,1.1228641271591189,-2.195626735687256,0.3897334039211273, ,2.6,1.7155694961547905
313,2939403774,-2.2279810905456543,-88.07695007324219,-164.02012634277344,9.789305686950684,-0.0895687043666839,0.2912187278270721,1.0861845016479492,-2.1686291694641118,0.5040241479873657, ,2.6083333333333334,0.33365964889526367
314,2939412107,-2.1972384452819824,-88.07685089111328,-164.04652404785156,9.795671463012695,-0.1200775131583213,0.2751739919185638,1.0974035263061523,-2.155489206314087,0.3439095616340637, ,2.6166666666666667,-0.9628093242645264
315,2939420440,-2.1419999599456787,-88.0770492553711,-164.09823608398438,9.791057586669922,-0.0937979072332382,0.2751719057559967,0.9986607432365416,-2.254693031311035,0.318730741739273, ,2.625,-0.9645134210586583
316,2939428773,-2.1198205947875977,-88.07674407958984,-164.11680603027344,9.827836036682127,-0.0993051975965499,0.2590987682342529,1.0130302906036377,-2.137303113937378,0.3762859106063843, ,2.6333333333333333,-0.23043572902679443
317,2939437106,-2.068716526031494,-88.07665252685547,-164.16378784179688,9.80339527130127,-0.0867098197340965,0.2713313102722168,1.0684082508087158,-2.2034389972686768,0.3388635516166687, ,2.6416666666666666,2.479408979415904
318,2939445439,-2.02817440032959,-88.07776641845703,-164.19924926757812,9.830843925476074,-0.0984145253896713,0.3004222512245178,1.164025902748108,-2.272904634475708,0.3032341003417969, ,2.65,0.7817119359970093
319,2939453772,-1.9830775260925293,-88.07746124267578,-164.24053955078125,9.821646690368652,-0.0893628224730491,0.2843598425388336,1.0324714183807373,-2.181948661804199,0.3621724843978882, ,2.658333333333333,-1.9795364141464304
320,2939462105,-1.9490591287612915,-88.07929229736328,-164.2701416015625,9.77181339263916,-0.0973166525363922,0.2674299776554107,1.106035590171814,-2.392421007156372,0.3234694004058838, ,2.6666666666666665,0.023485422134402967
321,2939470438,-1.8922888040542605,-88.0788803100586,-164.32286071777344,9.816701889038086,-0.089895062148571,0.2847512662410736,1.0627729892730713,-2.190452337265014,0.3167840540409088, ,2.675,0.6090974807739293
322,2939478771,-1.863543510437012,-88.08011627197266,-164.3470001220703,9.798681259155272,-0.1122089102864265,0.2775816023349762,1.123453140258789,-2.312427282333374,0.3472906053066253, ,2.683333333333333,0.6537491083145142
323,2939487104,-1.811972975730896,-88.08082580566406,-164.3939971923828,9.802474975585938,-0.0839152485132217,0.2956470847129822,1.138309359550476,-2.337939739227295,0.336711972951889, ,2.6916666666666664,1.109613776206995
324,2939495437,-1.7968076467514038,-88.08174133300781,-164.40504455566406,9.824984550476074,-0.1007564663887023,0.296075165271759,1.054448485374451,-2.2416296005249023,0.4034370183944702, ,2.7,-3.012635707855324
325,2939503770,-1.7349566221237185,-88.08245849609375,-164.4630126953125,9.78205394744873,-0.091909185051918,0.2454364895820617,1.0551912784576416,-2.336479425430298,0.2916308939456939, ,2.7083333333333335,1.4017170667648422
326,2939512103,-1.6996461153030396,-88.0832748413086,-164.49444580078125,9.84298038482666,-0.0942227467894554,0.3194371163845062,1.04310142993927,-2.2632992267608643,0.3230338990688324, ,2.716666666666667,1.2989294528961235
327,2939520436,-1.6520177125930786,-88.08357238769531,-164.53709411621094,9.820631980895996,-0.1053101494908332,0.267085313796997,1.165639877319336,-2.250441312789917,0.3557433187961578, ,2.725,-2.327381372451793
328,2939528769,-1.6348061561584473,-88.08470153808594,-164.5500030517578,9.814059257507324,-0.1021896228194236,0.2806474268436432,1.091742753982544,-2.31306791305542,0.3954453766345978, ,2.7333333333333334,-0.4435765743255651
329,2939537102,-1.57586932182312,-88.08531951904297,-164.60459899902344,9.806955337524414,-0.0987755209207534,0.259692370891571,1.1044986248016355,-2.3184468746185303,0.3062309622764587, ,2.7416666666666667,-0.12980639934539795
330,2939545435,-1.5418779850006104,-88.08602905273438,-164.63491821289062,9.800836563110352,-0.0798118337988853,0.2784839868545532,1.0089832544326782,-2.246573209762573,0.326030820608139, ,2.75,0.18871128559112726
331,2939553768,-1.5155012607574463,-88.08583068847656,-164.65711975097656,9.82271957397461,-0.1010870039463043,0.2628375589847564,1.0747092962265017,-2.199033260345459,0.4399884939193725, ,2.7583333333333333,0.801991224288944
332,2939562101,-1.5218348503112793,-88.08674621582031,-164.64614868164062,9.828594207763672,-0.0840795114636421,0.2918505072593689,1.139359712600708,-2.297776222229004,0.490269273519516, ,2.7666666666666666,0.3904312849044853
333,2939570434,-1.4982709884643557,-88.08663940429688,-164.66461181640625,9.79518985748291,-0.0780735686421394,0.2693447470664978,1.1981186866760254,-2.254590511322021,0.4535641074180603, ,2.775,0.5766338109970093
334,2939578767,-1.5191596746444702,-88.08756256103516,-164.63865661621094,9.833501815795898,-0.0845907479524612,0.3014610707759857,1.1729141473770142,-2.2455999851226807,0.5510262846946716, ,2.783333333333333,0.8747327327728271
335,2939587100,-1.5329570770263672,-88.087158203125,-164.6214141845703,9.776910781860352,-0.0829609930515289,0.2839236259460449,0.9939988255500792,-2.2055134773254395,0.5984637141227722, ,2.7916666666666665,-3.918210268020644
336,2939595433,-1.5571863651275637,-88.08859252929688,-164.5929412841797,9.847620964050291,-0.0994442179799079,0.2361575663089752,1.0708158016204834,-2.327437400817871,0.5588898062705994, ,2.8,-1.9114029407501274
337,2939603766,-1.5621490478515625,-88.08807373046875,-164.5833282470703,9.793103218078612,-0.0954199880361557,0.2520669102668762,1.1356711387634275,-2.18807053565979,0.5669071078300476, ,2.808333333333333,1.9628298282623362
338,2939612099,-1.557249903678894,-88.08756256103516,-164.58328247070312,9.834136962890623,-0.0862497314810752,0.268871396780014,1.158288598060608,-2.1253669261932373,0.4524883031845093, ,2.8166666666666664,1.4105951786041278
339,2939620432,-1.5681146383285522,-88.08612823486328,-164.56809997558594,9.82376480102539,-0.0863330215215683,0.2755768299102783,1.0994526147842407,-2.077519178390503,0.5918808579444885, ,2.825,0.6836986541747869
340,2939628765,-1.5812194347381592,-88.08531951904297,-164.54983520507812,9.804852485656738,-0.1105550229549408,0.2802663743495941,1.183236837387085,-2.051802635192871,0.5274355411529541, ,2.8333333333333335,1.7266201972961461
341,2939637098,-1.5845770835876465,-88.08428955078125,-164.54180908203125,9.780179023742676,-0.1037519127130508,0.3043538331985473,1.125322937965393,-2.083000659942627,0.5633722543716431, ,2.841666666666667,1.146697998046875
342,2939645431,-1.5915876626968384,-88.08409118652344,-164.52987670898438,9.83660125732422,-0.0808190703392028,0.2993780076503753,1.1603121757507324,-2.15881896018982,0.5002076029777527, ,2.85,-1.7742490768432688
343,2939653764,-1.5901081562042236,-88.08377838134766,-164.5266876220703,9.811704635620115,-0.1036168709397316,0.2747830152511596,1.137464165687561,-2.1835622787475586,0.5418307781219482, ,2.8583333333333334,-1.8295937776565552
344,2939662097,-1.6152112483978271,-88.08428955078125,-164.49586486816406,9.746174812316896,-0.0977636203169822,0.2688847780227661,1.2591062784194946,-2.261147975921631,0.5733107328414917, ,2.8666666666666667,0.7480233907699656
345,2939670430,-1.6171271800994873,-88.08500671386719,-164.4891357421875,9.791118621826172,-0.1054809242486953,0.2872500717639923,1.1496052742004397,-2.3102245330810547,0.5514616370201111, ,2.875,0.7687640190124476
346,2939678763,-1.6129122972488403,-88.08633422851562,-164.48829650878906,9.789159774780272,-0.0726242437958717,0.2816975116729736,1.1863105297088623,-2.3674468994140625,0.448236346244812, ,2.8833333333333333,-1.1219841241836583
347,2939687096,-1.5964871644973757,-88.08807373046875,-164.5011749267578,9.811046600341797,-0.1096898317337036,0.2685503363609314,0.9927948117256165,-2.3864781856536865,0.4709305167198181, ,2.8916666666666666,-1.9295167922973704
348,2939695429,-1.5900851488113403,-88.08930969238281,-164.5042266845703,9.812103271484377,-0.1129280552268028,0.2495388984680175,0.9891322255134584,-2.372467279434204,0.4344046413898468, ,2.9,1.2886351346969604
349,2939703762,-1.5514105558395386,-88.09033203125,-164.53892517089844,9.832993507385254,-0.0881709232926368,0.2900275886058807,1.0520150661468506,-2.3443942070007324,0.3862242698669433, ,2.908333333333333,1.8300551176071238
350,2939712095,-1.5234429836273191,-88.09176635742188,-164.56214904785156,9.817843437194824,-0.07234388589859,0.2800398170948028,1.1336475610733032,-2.3472628593444824,0.352182924747467, ,2.9166666666666665,0.023794770240787244
351,2939720428,-1.4929516315460205,-88.09063720703125,-164.58865356445312,9.802061080932615,-0.0868013203144073,0.2904241681098938,1.0642075538635254,-2.114531993865967,0.4251835346221924, ,2.925,-1.3550162315368652
352,2939728761,-1.4840422868728638,-88.09197235107422,-164.59246826171875,9.833939552307127,-0.0949696078896522,0.2574562132358551,1.167663335800171,-2.300900936126709,0.4337386190891266, ,2.933333333333333,0.5661231279373133
353,2939737094,-1.4452120065689087,-88.09176635742188,-164.62698364257812,9.79902172088623,-0.081392116844654,0.2998595535755157,1.0879775285720823,-2.178311586380005,0.3906042873859405, ,2.9416666666666664,1.9194602966309802
354,2939745427,-1.4477325677871704,-88.09114837646484,-164.6196746826172,9.823553085327148,-0.0908856987953186,0.2894472181797027,1.1358505487442017,-2.106975793838501,0.4807407855987549, ,2.95,-0.4942005872725872
355,2939753760,-1.4093142747879028,-88.0904312133789,-164.65359497070312,9.803647994995115,-0.1076342761516571,0.2916228771209717,1.1098777055740356,-2.110177516937256,0.3938316702842712, ,2.9583333333333335,-0.6649142503738403
356,2939762093,-1.4164177179336548,-88.09012603759766,-164.64141845703125,9.81321620941162,-0.084234595298767,0.2783653140068054,1.1918432712554932,-2.195908308029175,0.5008735656738281, ,2.966666666666667,0.20557165145874023
357,2939770426,-1.3819644451141355,-88.09002685546875,-164.6706085205078,9.790820121765137,-0.1183247193694114,0.2950490713119507,1.2115918397903442,-2.2107644081115723,0.4118640720844269, ,2.975,0.00520169734954834
358,2939778759,-1.3762390613555908,-88.0904312133789,-164.67140197753906,9.807106971740724,-0.0909301713109016,0.2784520089626312,1.1584935188293457,-2.236532688140869,0.4464689493179321, ,2.9833333333333334,-0.27674674987793324
359,2939787092,-1.3571735620498655,-88.0904312133789,-164.6858673095703,9.791987419128418,-0.0938012152910232,0.2904366254806518,1.1153076887130735,-2.2034389972686768,0.4705975353717804, ,2.9916666666666667,-0.4394870996475255
360,2939795425,-1.3401868343353271,-88.0908432006836,-164.6981964111328,9.814194679260254,-0.1053833737969398,0.2711272239685058,1.127679467201233,-2.2417068481445312,0.3994412124156952, ,3.0,-0.8211743831634521
361,2939803758,-1.304584264755249,-88.0908432006836,-164.72869873046875,9.80569839477539,-0.072104588150978,0.276750385761261,1.1811108589172363,-2.207383632659912,0.4059984683990478, ,3.0083333333333333,1.7280524969100988
362,2939812091,-1.2794891595840454,-88.09104919433594,-164.75094604492188,9.806649208068848,-0.1116077750921249,0.2999280989170074,0.9129298329353333,-2.2040281295776367,0.362377405166626, ,3.0166666666666666,1.3694894313812256
363,2939820424,-1.2274084091186523,-88.09063720703125,-164.79884338378906,9.811711311340332,-0.1048559248447418,0.2995752096176147,1.0817532539367676,-2.1787211894989014,0.3369936943054199, ,3.025,-1.8006205558776855
364,2939828757,-1.2127758264541626,-88.08961486816406,-164.8094940185547,9.798115730285645,-0.1180943325161933,0.269917756319046,1.0588796138763428,-2.085920810699463,0.4123507738113403, ,3.033333333333333,-2.063253521919256
365,2939837090,-1.170325756072998,-88.08930969238281,-164.84823608398438,9.857134819030762,-0.1013454347848892,0.2651876509189605,1.0100077390670776,-2.157819986343384,0.372648686170578, ,3.0416666666666665,1.0034734010696411
366,2939845423,-1.1286885738372805,-88.08879089355469,-164.88601684570312,9.75995922088623,-0.0899300947785377,0.28664231300354,1.0334960222244265,-2.131335020065308,0.3013899326324463, ,3.05,1.2422633171081632
367,2939853756,-1.1060634851455688,-88.08848571777344,-164.9043426513672,9.82702350616455,-0.0927916914224624,0.2858920395374298,1.0781160593032837,-2.151800632476806,0.4549984335899353, ,3.058333333333333,-0.23784935474396107
368,2939862089,-1.0984312295913696,-88.0876693725586,-164.90771484375,9.814976692199709,-0.0840458795428276,0.2826781570911407,1.0805749893188477,-2.0677857398986816,0.4416278600692749, ,3.0666666666666664,-0.2977985143661499
369,2939870422,-1.0805988311767578,-88.0877685546875,-164.9214630126953,9.771401405334473,-0.0902776196599006,0.2809287309646606,1.0606982707977295,-2.2254674434661865,0.4718782901763916, ,3.075,-0.2703595161437953
370,2939878755,-1.1038216352462769,-88.087158203125,-164.8936309814453,9.840058326721191,-0.0923956036567688,0.2781721651554107,1.1415879726409912,-2.171011209487915,0.5640126466751099, ,3.0833333333333335,-0.6165701150894165
371,2939887088,-1.0882346630096436,-88.08633422851562,-164.90451049804688,9.788708686828612,-0.0824270769953727,0.270652562379837,1.1479146480560305,-2.1686291694641118,0.4855306148529053, ,3.091666666666667,-0.33879697322845104
372,2939895421,-1.1191312074661257,-88.08746337890625,-164.8697509765625,9.815051078796388,-0.0998955741524696,0.2725255489349365,1.037901520729065,-2.301541328430176,0.5888071656227112, ,3.1,-1.1429339647293109
373,2939903754,-1.1008244752883911,-88.08735656738281,-164.8843231201172,9.807719230651855,-0.0968589782714843,0.2516036629676819,1.0239675045013428,-2.2147350311279297,0.4693168103694916, ,3.1083333333333334,2.0396035909652745
374,2939912087,-1.0933787822723389,-88.08674621582031,-164.88743591308594,9.791112899780272,-0.0693616718053817,0.306518942117691,1.0807799100875854,-2.081950664520264,0.4408338367938995, ,3.1166666666666667,1.7474895715713554
375,2939920420,-1.0498530864715576,-88.08654022216797,-164.92678833007812,9.806078910827637,-0.0884430930018425,0.2807284891605377,1.0788075923919678,-2.2102267742156982,0.3693701028823852, ,3.125,-2.543982267379766
376,2939928753,-1.0423386096954346,-88.08562469482422,-164.9301300048828,9.799510955810549,-0.0891933590173721,0.2641192376613617,1.0755800008773804,-2.055337190628052,0.4425754845142364, ,3.1333333333333333,-2.686730325222028
377,2939937086,-1.0482604503631592,-88.08409118652344,-164.91954040527344,9.812437057495115,-0.0749294981360435,0.2359496504068374,1.1349796056747437,-2.0528531074523926,0.5714408159255981, ,3.1416666666666666,0.10866343975066783
378,2939945419,-1.0429487228393557,-88.0838851928711,-164.92149353027344,9.77617073059082,-0.0896978005766868,0.2659302949905395,0.968871295452118,-2.14070987701416,0.4462128281593323, ,3.15,1.7237278819084274
379,2939953752,-1.0336180925369265,-88.0838851928711,-164.92645263671875,9.81501007080078,-0.0884515419602394,0.2646784484386444,1.0924855470657349,-2.222444772720337,0.5065087676048279, ,3.158333333333333,0.714256167411806
380,2939962085,-0.9970993995666504,-88.083984375,-164.95928955078125,9.810649871826172,-0.1031940802931785,0.2778345644474029,1.010033369064331,-2.1812314987182617,0.321010410785675, ,3.1666666666666665,1.1127126216888445
381,2939970418,-0.9846318364143372,-88.08367919921875,-164.9671630859375,9.816276550292969,-0.0971590802073478,0.2832236588001251,1.1283199787139893,-2.1899914741516118,0.4960837364196777, ,3.175,-0.14583885669707897
382,2939978751,-0.9748326539993286,-88.08367919921875,-164.97178649902344,9.817865371704102,-0.0812251642346382,0.2754039168357849,1.189409852027893,-2.1749303340911865,0.4347632527351379, ,3.183333333333333,-0.596605539321903
383,2939987084,-0.9554243683815002,-88.08214569091797,-164.98681640625,9.812936782836914,-0.102995328605175,0.2732802331447601,1.0984792709350586,-2.0378172397613525,0.4693936705589294, ,3.1916666666666664,0.6551134586333625
384,2939995417,-0.9443573355674744,-88.08184051513672,-164.99317932128906,9.80317497253418,-0.0853663459420204,0.2863224744796753,1.1305739879608154,-2.145089864730835,0.4281291663646698, ,3.2,0.5756485462188046
385,2940003750,-0.905232071876526,-88.08092498779297,-165.0275115966797,9.829776763916016,-0.0920622944831848,0.2828743755817413,1.1535242795944214,-2.116760492324829,0.3909884989261627, ,3.2083333333333335,-0.45869708061218617
386,2940012083,-0.8831232190132141,-88.08020782470703,-165.04489135742188,9.783761978149414,-0.0605882667005062,0.2786775231361389,1.1501431465148926,-2.140402317047119,0.3837652504444122, ,3.216666666666667,0.2186572551727366
387,2940020416,-0.8821858167648315,-88.08071899414062,-165.0409698486328,9.827248573303224,-0.0775710716843605,0.2865186631679535,1.1500407457351685,-2.2861218452453613,0.541318416595459, ,3.225,0.3882694244384801
388,2940028749,-0.9111940860748292,-88.08163452148438,-165.00645446777344,9.807827949523926,-0.0845417827367782,0.2851486802101135,1.212898015975952,-2.248955249786377,0.5899598598480225, ,3.2333333333333334,-1.4902782440185618
389,2940037082,-0.9247986674308776,-88.08184051513672,-164.98777770996094,9.80037784576416,-0.1006238460540771,0.2616806924343109,1.1838772296905518,-2.2564094066619877,0.6013326644897461, ,3.2416666666666667,-2.266745567321788
390,2940045415,-0.969017744064331,-88.08184051513672,-164.9388885498047,9.79966163635254,-0.0861400142312049,0.2473695874214172,1.124067783355713,-2.2457025051116943,0.6486164331436157, ,3.25,0.5840331315994298
391,2940053748,-0.98260498046875,-88.08061981201172,-164.92112731933594,9.788536071777344,-0.1148811057209968,0.271414577960968,1.069125413894653,-2.055311918258667,0.6005898714065552, ,3.2583333333333333,1.5507745742797923
392,2940062081,-1.0086268186569214,-88.08061981201172,-164.89065551757812,9.787957191467283,-0.1057266965508461,0.2732158303260803,1.0937150716781616,-2.167732715606689,0.5753597617149353, ,3.2666666666666666,1.151429414749149
393,2940070414,-1.0119603872299194,-88.08092498779297,-164.88336181640625,9.835933685302734,-0.104898527264595,0.2906050682067871,1.0395408868789673,-2.2386586666107178,0.5565845370292664, ,3.275,1.41365647315979
394,2940078747,-1.0309717655181885,-88.08071899414062,-164.86050415039062,9.79034423828125,-0.068431869149208,0.2967767715454101,1.0384650230407717,-2.173854351043701,0.5434699654579163, ,3.283333333333333,0.22349059581756592
395,2940087080,-1.0037193298339844,-88.08041381835938,-164.883544921875,9.815906524658203,-0.0819383859634399,0.2943299114704132,1.0775525569915771,-2.1743924617767334,0.4354804456233978, ,3.2916666666666665,-1.5865713357925415
396,2940095413,-0.9997053742408752,-88.08071899414062,-164.882568359375,9.796833992004396,-0.0941453278064727,0.2703339159488678,1.1634626388549805,-2.2426798343658447,0.4540763199329376, ,3.3,-1.6300910711288523
397,2940103746,-0.9936468601226808,-88.08030700683594,-164.88380432128906,9.82868480682373,-0.0806155949831008,0.2671617269515991,1.149425983428955,-2.1564366817474365,0.5240032076835632, ,3.308333333333333,2.7918612957000803
398,2940112079,-0.9949892163276672,-88.08113098144531,-164.8774871826172,9.781991958618164,-0.0826965495944023,0.316864937543869,1.1675608158111572,-2.316525936126709,0.4762071371078491, ,3.3166666666666664,0.9550738334655797
399,2940120412,-1.015851616859436,-88.08245849609375,-164.8511199951172,9.766840934753418,-0.0882278159260749,0.2830796241760254,1.2248088121414185,-2.356355905532837,0.629866898059845, ,3.3249999999999997,-3.7463217973708396
400,2940128745,-1.0194108486175537,-88.08428955078125,-164.84274291992188,9.829339981079102,-0.0893494114279747,0.2544262409210205,1.1553428173065186,-2.413706064224243,0.4826874434947967, ,3.3333333333333335,-0.29648423194867846
401,2940137078,-1.0293803215026855,-88.08480834960938,-164.82907104492188,9.834824562072754,-0.0822797268629074,0.2781382203102112,1.0163344144821167,-2.317678213119507,0.5807642936706543, ,3.341666666666667,1.2343829870224035
402,2940145411,-1.0563069581985474,-88.087158203125,-164.79759216308594,9.774423599243164,-0.0706692636013031,0.2749992907047272,1.1063941717147827,-2.4293053150177,0.575513482093811, ,3.35,0.2889776229858363
403,2940153744,-1.0227924585342407,-88.0872573852539,-164.826171875,9.832650184631348,-0.1035128831863403,0.2829545140266418,1.1694307327270508,-2.2356104850769043,0.4114798903465271, ,3.3583333333333334,0.4713821411132777
404,2940162077,-1.016014575958252,-88.08838653564453,-164.82809448242188,9.81080436706543,-0.086587406694889,0.2828556597232818,1.162463665008545,-2.3619399070739746,0.443190336227417, ,3.3666666666666667,-0.36979973316192627
405,2940170410,-1.011664628982544,-88.08910369873047,-164.82769775390625,9.78261375427246,-0.1019123196601867,0.2767911851406097,1.138770580291748,-2.2878124713897705,0.527973473072052, ,3.375,0.13306081295013783
406,2940178743,-1.0376031398773191,-88.09063720703125,-164.7963409423828,9.822840690612791,-0.0872622057795524,0.2850733399391174,1.2158437967300415,-2.3793320655822754,0.574873149394989, ,3.3833333333333333,1.302852630615238
407,2940187076,-1.0445529222488403,-88.09053802490234,-164.784912109375,9.81003475189209,-0.0907293036580085,0.2985053956508636,1.1163067817687988,-2.2286434173583984,0.5736692547798157, ,3.3916666666666666,-0.8220541477203369
408,2940195409,-1.0459052324295044,-88.0909423828125,-164.7797088623047,9.798422813415527,-0.1073026210069656,0.2713724374771118,1.0275535583496094,-2.2164251804351807,0.4740810990333557, ,3.4,-3.3063474297523605
409,2940203742,-1.0761442184448242,-88.0908432006836,-164.74456787109375,9.794036865234377,-0.0885263904929161,0.2433996051549911,1.1582629680633545,-2.220139503479004,0.6670075058937073, ,3.408333333333333,0.8011257648468018
410,2940212075,-1.0917071104049685,-88.09146118164062,-164.724365234375,9.768718719482422,-0.0712542906403541,0.2847245335578918,1.1258352994918823,-2.2384533882141118,0.5331730842590332, ,3.4166666666666665,1.98933094739915
411,2940220408,-1.1159286499023438,-88.0909423828125,-164.69569396972656,9.820050239562988,-0.0888600870966911,0.2765551209449768,1.1047803163528442,-2.176595449447632,0.6423922181129456, ,3.425,-1.8377798795700127
412,2940228741,-1.16349196434021,-88.09063720703125,-164.64389038085938,9.803733825683594,-0.0574070066213607,0.2540948688983917,1.073377251625061,-2.1143784523010254,0.6618334054946899, ,3.433333333333333,1.5750950574874913
413,2940237074,-1.197148323059082,-88.09053802490234,-164.60520935058594,9.821935653686523,-0.0772871077060699,0.3028067052364349,1.1735801696777344,-2.234534502029419,0.6808903813362122, ,3.4416666666666664,3.5863924026489347
414,2940245407,-1.251492977142334,-88.09074401855469,-164.5463104248047,9.82341480255127,-0.1131536960601806,0.3138680756092071,1.1171265840530396,-2.2186026573181152,0.6890613436698914, ,3.4499999999999997,1.4711201190948096
415,2940253740,-1.250333547592163,-88.09074401855469,-164.54293823242188,9.811083793640137,-0.0860873907804489,0.3273253738880157,1.1217368841171265,-2.2273881435394287,0.5410110354423523, ,3.4583333333333335,-2.2691488265992703
416,2940262073,-1.257030963897705,-88.09125518798828,-164.53128051757812,9.794366836547852,-0.0774397030472755,0.2760489284992218,1.1681756973266602,-2.233714818954468,0.4974412322044372, ,3.466666666666667,-2.476269006729133
417,2940270406,-1.279650092124939,-88.09237670898438,-164.5042266845703,9.808958053588867,-0.1158023849129676,0.2860542237758636,1.100861430168152,-2.368548393249512,0.632172167301178, ,3.475,1.0479533672332764
418,2940278739,-1.309844970703125,-88.09361267089844,-164.4694061279297,9.793824195861816,-0.1023464649915695,0.2935148179531097,1.1317521333694458,-2.3544092178344727,0.589447557926178, ,3.4833333333333334,-0.2210462093353307
419,2940287072,-1.3265206813812256,-88.09423065185547,-164.44810485839844,9.79127597808838,-0.0855178013443946,0.2823701202869415,1.128524899482727,-2.2970590591430664,0.6097085475921631, ,3.4916666666666667,-0.23462712764739635
420,2940295405,-1.3638790845870972,-88.09525299072266,-164.40589904785156,9.820497512817385,-0.0895382463932037,0.2896043658256531,1.1294468641281128,-2.2860960960388184,0.6188527345657349, ,3.5,-0.401684045791626
421,2940303738,-1.3633575439453125,-88.09556579589844,-164.4021453857422,9.795954704284668,-0.0949116423726081,0.2756753861904144,1.084826946258545,-2.2741856575012207,0.5402170419692993, ,3.5083333333333333,-0.21875023841858265
422,2940312071,-1.3651785850524902,-88.09617614746094,-164.39683532714844,9.824783325195312,-0.0921686440706253,0.2859585285186767,0.9861865043640136,-2.264861822128296,0.4737225174903869, ,3.5166666666666666,-0.2865368127822876
423,2940320404,-1.3204466104507446,-88.0953598022461,-164.43772888183594,9.819598197937012,-0.0713852420449256,0.2708997726440429,1.0493768453598022,-2.164684534072876,0.3655023574829101, ,3.525,-1.8730223178863596
424,2940328737,-1.3180673122406006,-88.0959701538086,-164.43624877929688,9.825765609741213,-0.0897350832819938,0.2547414898872375,1.0284243822097778,-2.2171425819396973,0.4591736197471618, ,3.533333333333333,0.16481816768646596
425,2940337070,-1.2947487831115725,-88.09771728515625,-164.45571899414062,9.825395584106444,-0.082357570528984,0.273646742105484,1.028629183769226,-2.4185984134674072,0.4447015225887298, ,3.5416666666666665,1.3293117284774851
426,2940345403,-1.287744641304016,-88.09771728515625,-164.458740234375,9.784398078918455,-0.0905194953083992,0.2768966853618622,1.053347110748291,-2.1850736141204834,0.4423194527626037, ,3.55,0.26288151741027477
427,2940353736,-1.2627642154693604,-88.09864807128906,-164.47926330566406,9.830509185791016,-0.1024924963712692,0.2780281007289886,1.118688941001892,-2.362144708633423,0.4422938525676727, ,3.558333333333333,0.8965373039245605
428,2940362069,-1.2791070938110352,-88.09957885742188,-164.459228515625,9.777052879333496,-0.069723255932331,0.2918389737606048,1.0228147506713867,-2.328743934631348,0.5323278903961182, ,3.5666666666666664,-1.3279259204864502
429,2940370402,-1.2814311981201172,-88.09967803955078,-164.45274353027344,9.814635276794434,-0.0895554274320602,0.2558960020542145,1.0720710754394531,-2.2220349311828613,0.5538694858551025, ,3.5749999999999997,-1.1287397146226397
430,2940378735,-1.304961919784546,-88.10122680664062,-164.4252166748047,9.81898593902588,-0.0934058651328086,0.2730266451835632,1.0260164737701416,-2.3403725624084477,0.5587361454963684, ,3.5833333333333335,1.130699515342636
431,2940387068,-1.3117213249206543,-88.10111999511719,-164.4141082763672,9.79832935333252,-0.0855568870902061,0.274740993976593,1.1046266555786133,-2.2361738681793213,0.5701344013214111, ,3.591666666666667,0.291284322738651
432,2940395401,-1.324400544166565,-88.10143280029297,-164.39703369140625,9.807950973510742,-0.0826451107859611,0.277881383895874,1.0992478132247925,-2.217757225036621,0.5227225422859192, ,3.6,0.179634690284729
433,2940403734,-1.3456370830535889,-88.1025619506836,-164.3722686767578,9.787994384765623,-0.0656632781028747,0.2777349054813385,0.9889271855354308,-2.3590965270996094,0.6210554838180542, ,3.6083333333333334,0.360226035118103
434,2940412067,-1.3661037683486938,-88.10308074951172,-164.34718322753906,9.80528163909912,-0.0800328031182289,0.2838851511478424,1.136926293373108,-2.2825615406036377,0.5534852147102356, ,3.6166666666666667,9.834766387939453e-05
435,2940420400,-1.376353740692139,-88.10359191894531,-164.33216857910156,9.794087409973145,-0.0820695459842681,0.2777365446090698,1.1479147672653198,-2.294856309890747,0.5845808982849121, ,3.625,-0.30453264713287354
436,2940428733,-1.3993525505065918,-88.10494232177734,-164.30477905273438,9.783379554748535,-0.0814020633697509,0.2788096070289612,1.0930746793746948,-2.3391430377960205,0.5591715574264526, ,3.6333333333333333,-0.7249206304550189
437,2940437066,-1.424135446548462,-88.10627746582031,-164.2764434814453,9.823532104492188,-0.1037196964025497,0.2656545341014862,1.004167556762695,-2.4055354595184326,0.6343749165534973, ,3.6416666666666666,-1.3602876663208043
438,2940445399,-1.4290107488632202,-88.10794067382812,-164.2674560546875,9.775588989257812,-0.0760333910584449,0.2561381459236145,1.0606982707977295,-2.3671650886535645,0.4851208031177521, ,3.65,-0.6814116239547765
439,2940453732,-1.4296493530273438,-88.10855102539062,-164.26303100585938,9.843017578125,-0.081875555217266,0.25429767370224,1.0287315845489502,-2.309814929962158,0.5433931350708008, ,3.658333333333333,0.41675984859466375
440,2940462065,-1.4676759243011477,-88.11042022705078,-164.22157287597656,9.796065330505373,-0.0988311395049095,0.2630841434001922,0.972969651222229,-2.415499210357666,0.6136786937713623, ,3.6666666666666665,1.5154945850372332
441,2940470398,-1.4729129076004028,-88.11073303222656,-164.21180725097656,9.78219985961914,-0.0873969793319702,0.2795559167861938,1.1149235963821411,-2.266885280609131,0.5637308955192566, ,3.675,1.144486069679262
442,2940478731,-1.4986355304718018,-88.1121826171875,-164.18246459960938,9.831684112548828,-0.0942772105336189,0.2821589112281799,0.9981995224952698,-2.347032308578491,0.5664460062980652, ,3.683333333333333,-0.23293375968933105
443,2940487064,-1.499564290046692,-88.11415100097656,-164.1772003173828,9.81203269958496,-0.0864787548780441,0.2756736874580383,1.095943570137024,-2.459351062774658,0.542343020439148, ,3.6916666666666664,0.15116572380066629
444,2940495397,-1.5311535596847534,-88.11487579345703,-164.1416015625,9.807535171508787,-0.1014158576726913,0.2846783399581909,1.0492488145828247,-2.2816903591156006,0.5920090675354004, ,3.6999999999999997,0.7189464569091797
445,2940503730,-1.5677552223205566,-88.1155014038086,-164.10044860839844,9.7827787399292,-0.0882329046726226,0.2876561284065246,1.1119012832641602,-2.301208257675171,0.6869609951972961, ,3.7083333333333335,-0.28557658195498803
446,2940512063,-1.587735295295715,-88.11664581298828,-164.07659912109375,9.824952125549316,-0.0888779982924461,0.2799187302589416,1.0314980745315552,-2.336428165435791,0.5448532104492188, ,3.716666666666667,-0.9036827087402379
447,2940520396,-1.6091346740722656,-88.11653900146484,-164.05067443847656,9.810294151306152,-0.0946496278047561,0.2725947499275207,1.1187913417816162,-2.23955512046814,0.6291239857673645, ,3.725,-0.002914667129513049
448,2940528729,-1.6539466381072998,-88.11779022216797,-164.00186157226562,9.793988227844238,-0.0870439410209655,0.2798701524734497,1.0369282960891724,-2.3170382976531982,0.6422385573387146, ,3.7333333333333334,-0.3864759206771833
449,2940537062,-1.6840943098068235,-88.11788940429688,-163.96771240234375,9.795717239379885,-0.0789987444877624,0.266153484582901,1.0606215000152588,-2.2574849128723145,0.662268877029419, ,3.7416666666666667,0.1189720630645752
450,2940545395,-1.7279313802719116,-88.11862182617188,-163.91900634765625,9.830272674560549,-0.1069924235343933,0.2818530201911926,1.1501176357269287,-2.2935245037078857,0.6418799757957458, ,3.75,-0.4769039154052752
451,2940553728,-1.7470788955688477,-88.11872100830078,-163.89540100097656,9.791131019592283,-0.0722405984997749,0.2582050859928131,1.102859377861023,-2.2265431880950928,0.6202359199523926, ,3.7583333333333333,0.6351113319396973
452,2940562061,-1.8088810443878172,-88.11882781982422,-163.82925415039062,9.79278564453125,-0.0842346549034118,0.2924382090568542,1.089130163192749,-2.2049503326416016,0.7151110768318176, ,3.7666666666666666,1.707504987716682
453,2940570394,-1.8519084453582764,-88.12059783935547,-163.78207397460938,9.802066802978516,-0.1237940713763237,0.2866635024547577,1.077117085456848,-2.4624500274658203,0.7047372460365295, ,3.775,-2.6519519090652572
454,2940578727,-1.8901746273040767,-88.12059783935547,-163.73956298828125,9.820414543151855,-0.0876558423042297,0.2482390105724334,1.0479423999786377,-2.130745649337769,0.6235401034355164, ,3.783333333333333,-1.0892772674560582
455,2940587060,-1.906491994857788,-88.1199722290039,-163.7186737060547,9.792840957641602,-0.1005733385682106,0.2685088813304901,1.1232227087020874,-2.1620209217071533,0.6111685037612915, ,3.7916666666666665,1.8519312143325912
456,2940595393,-1.9685450792312624,-88.12017822265625,-163.65179443359375,9.807977676391602,-0.070616066455841,0.2791045308113098,1.1585702896118164,-2.253924369812012,0.7169808745384216, ,3.8,1.6944319009780884
457,2940603726,-2.006918668746948,-88.12007904052734,-163.60867309570312,9.804817199707031,-0.0894358456134796,0.2967494130134582,1.1379764080047607,-2.2182953357696533,0.6969761252403259, ,3.808333333333333,-0.2680224180221593
458,2940612059,-2.063823699951172,-88.12184143066406,-163.5476837158203,9.816823959350586,-0.1011886745691299,0.2746374905109405,1.0490437746047974,-2.3956992626190186,0.6877037882804871, ,3.8166666666666664,-2.609251141548164
459,2940620392,-2.068028688430786,-88.12184143066406,-163.53961181640625,9.778213500976562,-0.1058685183525085,0.2532618939876556,1.0440746545791626,-2.253822326660156,0.5587617754936218, ,3.8249999999999997,1.3373869657514135
460,2940628725,-2.0842463970184326,-88.12226104736328,-163.51914978027344,9.804420471191406,-0.0925770625472068,0.296927273273468,1.0727624893188477,-2.237762212753296,0.533659815788269, ,3.8333333333333335,1.1693269014356105
461,2940637058,-2.082934617996216,-88.12413787841797,-163.5161590576172,9.826952934265137,-0.0824822708964347,0.2727506756782532,1.0726858377456665,-2.3981072902679443,0.5325327515602112, ,3.841666666666667,-3.234394490718852
462,2940645391,-2.088871955871582,-88.12549591064453,-163.505615234375,9.813387870788574,-0.087888978421688,0.243020698428154,1.130855679512024,-2.3773081302642822,0.4907047152519226, ,3.85,0.34696340560913086
463,2940653724,-2.094213962554932,-88.12622833251953,-163.4956817626953,9.80252742767334,-0.0827639326453208,0.278533399105072,1.132085204124451,-2.347365617752075,0.5611438751220703, ,3.8583333333333334,2.493305504322059
464,2940662057,-2.138159990310669,-88.1275863647461,-163.44618225097656,9.812295913696287,-0.0954398736357688,0.2845757901668548,1.2221190929412842,-2.3192408084869385,0.6441851854324341, ,3.8666666666666667,-0.15948951244354248
465,2940670390,-2.1679909229278564,-88.12967681884766,-163.41217041015625,9.825027465820312,-0.0992673859000206,0.2758752405643463,1.0822911262512207,-2.4817376136779785,0.6506655812263489, ,3.875,-0.5373269319534337
466,2940678723,-2.225403308868408,-88.1305160522461,-163.34921264648438,9.830540657043455,-0.1135370433330535,0.2756203413009643,1.237795114517212,-2.303206443786621,0.6983081102371216, ,3.8833333333333333,0.9583157300949132
467,2940687056,-2.245328426361084,-88.13082885742188,-163.32501220703125,9.805747985839844,-0.1024469584226608,0.2918471693992615,1.082547307014465,-2.2624800205230717,0.621055543422699, ,3.8916666666666666,0.7080030441284251
468,2940695389,-2.3117146492004395,-88.13176727294922,-163.25326538085938,9.779236793518066,-0.0797534361481666,0.287420392036438,1.2186100482940674,-2.3380160331726074,0.7293525338172913, ,3.9,-2.265434861183177
469,2940703722,-2.374318599700928,-88.13355255126953,-163.18556213378906,9.813343048095703,-0.0855780988931655,0.2540899217128753,1.1716591119766235,-2.4118876457214355,0.7825533151626587, ,3.908333333333333,-0.3067642450332677
470,2940712055,-2.433464527130127,-88.13491821289062,-163.12168884277344,9.817110061645508,-0.1231381222605705,0.2823076546192169,1.126501202583313,-2.358891725540161,0.6994094252586365, ,3.9166666666666665,1.969555020332347
471,2940720388,-2.467552900314331,-88.1352310180664,-163.08331298828125,9.780268669128418,-0.0790777951478958,0.2869158387184143,1.0902059078216553,-2.2843289375305176,0.6735648512840271, ,3.925,-0.6425213813781738
472,2940728721,-2.525243043899536,-88.13690948486328,-163.02015686035156,9.803947448730469,-0.089435376226902,0.2715989649295807,1.217406153678894,-2.385504961013794,0.6948245763778687, ,3.933333333333333,-2.0399969816207975
473,2940737054,-2.566742181777954,-88.13681030273438,-162.9742431640625,9.815468788146973,-0.0930274799466133,0.2529158890247345,1.1111069917678833,-2.255589485168457,0.7033796906471252, ,3.9416666666666664,-0.2033847570419347
474,2940745387,-2.58791446685791,-88.13670349121094,-162.9494171142578,9.792564392089844,-0.1014930978417396,0.2682092189788818,0.9941781163215636,-2.1445517539978027,0.5546379089355469, ,3.9499999999999997,1.8166762590407899
475,2940753720,-2.6089322566986084,-88.13690948486328,-162.9244384765625,9.814823150634766,-0.1174903884530067,0.283193826675415,1.0583417415618896,-2.2782583236694336,0.6223874688148499, ,3.9583333333333335,0.3035259246825319
476,2940762053,-2.6364266872406006,-88.1372299194336,-162.89215087890625,9.808513641357422,-0.0994305983185768,0.2732679843902588,1.1215577125549316,-2.2052576541900635,0.5811741948127747, ,3.966666666666667,0.1447284221649241
477,2940770386,-2.6423301696777344,-88.13743591308594,-162.88186645507812,9.840409278869627,-0.1219392046332359,0.2856059670448303,1.1145906448364258,-2.3040003776550293,0.5637820959091187, ,3.975,-0.0033169984817504883
478,2940778719,-2.650491714477539,-88.13817596435547,-162.8698272705078,9.799117088317873,-0.0901786759495735,0.2732127010822296,1.0223537683486938,-2.255358934402466,0.4988756775856018, ,3.9833333333333334,-0.6386804580688548
479,2940787052,-2.650269031524658,-88.13848876953125,-162.86557006835938,9.809823989868164,-0.0986652448773384,0.2749612927436828,1.1089811325073242,-2.270880937576294,0.5410366058349609, ,3.9916666666666667,-1.2739580869674736
480,2940795385,-2.6761512756347656,-88.13848876953125,-162.83499145507812,9.816864967346191,-0.1001823619008064,0.2519800662994385,1.1335195302963257,-2.190708637237549,0.5760514140129089, ,4.0,-0.4142904281615074
481,2940803718,-2.6786680221557617,-88.1373291015625,-162.82772827148438,9.808305740356444,-0.0839324444532394,0.2680564522743225,1.1425869464874268,-2.1073086261749268,0.5605034828186035, ,4.008333333333333,1.5582203865051731
482,2940812051,-2.721858024597168,-88.13848876953125,-162.77976989746094,9.82171630859375,-0.1100784987211227,0.2779504060745239,1.1467365026474,-2.3061776161193848,0.6390367746353149, ,4.016666666666667,0.8634495735167995
483,2940820384,-2.741481065750122,-88.13870239257812,-162.75462341308594,9.824207305908203,-0.0881866589188575,0.2824472784996032,1.224091410636902,-2.2430639266967773,0.6239243149757385, ,4.025,-1.3486450910570351
484,2940828717,-2.770071268081665,-88.13848876953125,-162.7213592529297,9.79318141937256,-0.1037204265594482,0.2554729878902435,1.140640377998352,-2.2151191234588623,0.5852981209754944, ,4.033333333333333,-1.5426599979402482
485,2940837050,-2.7855095863342285,-88.13774871826172,-162.70059204101562,9.812451362609863,-0.1057172790169715,0.2567362785339355,1.2101829051971436,-2.1165554523468018,0.6135505437850952, ,4.041666666666667,1.9852083921434502
486,2940845383,-2.803898572921753,-88.13870239257812,-162.67665100097656,9.81134796142578,-0.0700015947222709,0.2885597944259643,1.225807547569275,-2.291398048400879,0.5444433689117432, ,4.05,1.1407345533373885
487,2940853716,-2.799781560897827,-88.13774871826172,-162.6753387451172,9.815829277038574,-0.1085105538368225,0.2757485210895538,1.2351311445236206,-2.138378858566284,0.5366565585136414, ,4.058333333333334,-2.6720184087754593
488,2940862049,-2.822896718978882,-88.1390151977539,-162.6468963623047,9.804110527038574,-0.1006972715258598,0.2440261542797088,1.179317831993103,-2.291961669921875,0.5612719058990479, ,4.066666666666666,0.5551528930659444
489,2940870382,-2.8348548412323,-88.13922882080078,-162.6306610107422,9.79310131072998,-0.0837967619299888,0.2850010693073272,1.0997856855392456,-2.2816903591156006,0.5883974432945251, ,4.075,0.30267566442440597
490,2940878715,-2.849850416183472,-88.14048767089844,-162.61097717285156,9.813847541809082,-0.0909628048539161,0.2490707486867904,1.13966703414917,-2.363041639328003,0.5251815319061279, ,4.083333333333333,-1.5687239170077412
491,2940887048,-2.8421013355255127,-88.14080810546875,-162.614501953125,9.82651710510254,-0.0710061341524124,0.2588556706905365,1.0729931592941284,-2.253028154373169,0.5114266276359558, ,4.091666666666667,1.6050973534584578
492,2940895381,-2.860860109329224,-88.14122009277344,-162.59164428710938,9.800379753112791,-0.1000570207834243,0.2758223712444305,1.0652064085006714,-2.248110055923462,0.5422148704528809, ,4.1,0.702536702156209
493,2940903714,-2.8607983589172363,-88.13985443115234,-162.5880584716797,9.799426078796388,-0.0738468989729881,0.2705646157264709,1.0086756944656372,-2.0470895767211914,0.5492331981658936, ,4.108333333333333,-1.2078505754471465
494,2940912047,-2.880697250366211,-88.1390151977539,-162.5628662109375,9.828767776489258,-0.0859862864017486,0.2556915283203125,1.1945070028305054,-2.1045424938201904,0.559197187423706, ,4.116666666666666,0.27965962886788276
495,2940920380,-2.8845393657684326,-88.13827514648438,-162.55453491210938,9.785125732421877,-0.0846524685621261,0.2752256095409393,1.1206356287002563,-2.160407304763794,0.5636028051376343, ,4.125,1.5546458959578633
496,2940928713,-2.9314746856689453,-88.13848876953125,-162.5032958984375,9.823549270629885,-0.0861515253782272,0.2816022932529449,1.0914610624313354,-2.226235628128052,0.6549176573753357, ,4.133333333333333,-1.3517832756040242
497,2940937046,-2.944918155670166,-88.13954162597656,-162.48556518554688,9.824005126953123,-0.067260518670082,0.2526958882808685,1.0763485431671145,-2.341448307037353,0.5905489921569824, ,4.141666666666667,0.1683229207992447
498,2940945379,-2.9749014377593994,-88.13922882080078,-162.451171875,9.800426483154297,-0.1030507385730743,0.2844076752662658,1.0773732662200928,-2.133768320083618,0.5924956798553467, ,4.15,1.9343125820157994
499,2940953712,-2.982938051223755,-88.13943481445312,-162.43960571289062,9.832794189453123,-0.0880469977855682,0.2849344313144684,1.0039883852005005,-2.2601490020751958,0.5707748532295227, ,4.158333333333333,-2.4684244394299704
500,2940962045,-3.00357985496521,-88.140380859375,-162.41412353515625,9.783524513244627,-0.089415892958641,0.2432672679424286,1.1345953941345217,-2.262300729751587,0.5518971681594849, ,4.166666666666667,0.46110749244748206
501,2940970378,-3.014939546585083,-88.140380859375,-162.39852905273438,9.822651863098145,-0.0983523055911064,0.2926195561885834,1.0799089670181274,-2.257075071334839,0.5855029225349426, ,4.175,1.5846490859990023
502,2940978711,-3.03642201423645,-88.14048767089844,-162.3726806640625,9.786276817321776,-0.0936542078852653,0.2696780860424042,1.1005796194076538,-2.204207420349121,0.5577116012573242, ,4.183333333333334,-1.070655584335153
503,2940987044,-3.037909984588623,-88.1417465209961,-162.36672973632812,9.81324863433838,-0.0929853543639183,0.2747752964496612,1.1092629432678225,-2.384506225585937,0.5405756235122681, ,4.191666666666666,-1.518887579440852
504,2940995377,-3.0378713607788086,-88.14217376708984,-162.36209106445312,9.79682445526123,-0.07410329580307,0.2443632930517196,1.1415624618530271,-2.2745440006256104,0.4704694747924804, ,4.2,-1.5458938479421338
505,2941003710,-3.06268310546875,-88.14143371582031,-162.33291625976562,9.845503807067873,-0.1067058518528938,0.2490103989839553,1.100963830947876,-2.1680402755737305,0.6443901062011719, ,4.208333333333333,0.7791647315025152
506,2941012043,-3.0742409229278564,-88.14153289794922,-162.31649780273438,9.816446304321287,-0.0976923331618309,0.2573493719100952,1.1497077941894531,-2.1994433403015137,0.5205453038215637, ,4.216666666666667,2.2275254130364868
507,2941020376,-3.0837550163269043,-88.1417465209961,-162.30224609375,9.803272247314451,-0.0911725163459777,0.2861358225345611,1.1408451795578003,-2.268601655960083,0.5809436440467834, ,4.225,1.2705481052401062
508,2941028709,-3.1286497116088867,-88.14237976074219,-162.2519073486328,9.81718921661377,-0.0874641686677932,0.278525173664093,1.219839572906494,-2.270855665206909,0.6487190127372742, ,4.233333333333333,-1.963049769401671
509,2941037042,-3.1325340270996094,-88.14186096191406,-162.24298095703125,9.80885124206543,-0.1270214170217514,0.2534183263778686,1.1800862550735474,-2.160432815551758,0.56526780128479, ,4.241666666666666,0.6926518678661253
510,2941045375,-3.1362738609313965,-88.14311981201172,-162.234130859375,9.80076026916504,-0.1237765550613403,0.2900693714618683,1.176244020462036,-2.3419864177703857,0.484173059463501, ,4.25,0.8934777975078756
511,2941053708,-3.132441520690918,-88.14311981201172,-162.23269653320312,9.810322761535645,-0.0937104299664497,0.268309623003006,1.207929015159607,-2.219320058822632,0.5330194234848022, ,4.258333333333333,-1.1903822422029187
512,2941062041,-3.151806354522705,-88.14322662353516,-162.2083740234375,9.786418914794922,-0.0695125460624694,0.2702296674251556,1.1468390226364136,-2.1671438217163086,0.5517434477806091, ,4.266666666666667,0.5223870277404501
513,2941070374,-3.180474281311035,-88.14375305175781,-162.1752471923828,9.8135986328125,-0.0877768248319625,0.2770160734653473,1.1037558317184448,-2.2949585914611816,0.6531501412391663, ,4.275,-2.2797256708148517
514,2941078707,-3.2317118644714355,-88.14290618896484,-162.11940002441406,9.786590576171877,-0.1152404844760894,0.232234239578247,1.1429455280303955,-2.1227540969848637,0.6774068474769592, ,4.283333333333333,-1.4455765485767795
515,2941087040,-3.2407147884368896,-88.1427001953125,-162.1057891845703,9.819375991821287,-0.0954351425170898,0.2529231309890747,1.122454285621643,-2.201978921890259,0.5820450782775879, ,4.291666666666667,1.7740720510482149
516,2941095373,-3.2408413887023926,-88.14354705810547,-162.10130310058594,9.784000396728516,-0.0967956408858299,0.2618021070957184,1.081061601638794,-2.284226417541504,0.4706231951713562, ,4.3,1.1634653806686348
517,2941103706,-3.235708475112915,-88.14459991455078,-162.1012725830078,9.827481269836426,-0.0859532952308654,0.2723142206668854,1.1941227912902832,-2.3572781085968018,0.518572986125946, ,4.308333333333334,-0.04246294498457637
518,2941112039,-3.252027034759521,-88.14395904541016,-162.07923889160156,9.79831886291504,-0.1022982746362686,0.2610943913459778,1.2420982122421265,-2.086407423019409,0.5493612885475159, ,4.316666666666666,0.0170838832853768
519,2941120372,-3.2332143783569336,-88.1427001953125,-162.09222412109375,9.790117263793944,-0.0736180171370506,0.2725989520549774,1.2846691608428955,-2.095141887664795,0.4847366213798523, ,4.325,-1.3214510679247944
520,2941128705,-3.2726030349731445,-88.14290618896484,-162.04713439941406,9.826433181762695,-0.0693968906998634,0.2390702068805694,1.221709370613098,-2.182127952575684,0.6325050592422485, ,4.333333333333333,-0.9863859415057554
521,2941137038,-3.298410415649414,-88.14227294921875,-162.0158233642578,9.843121528625488,-0.1188826933503151,0.2561591863632202,1.2525488138198853,-2.218090295791626,0.6494617462158203, ,4.341666666666667,0.8574968576430066
522,2941145371,-3.343932867050171,-88.14290618896484,-161.96453857421875,9.774182319641112,-0.0961784645915031,0.2533618211746216,1.2410993576049805,-2.261096715927124,0.6540723443031311, ,4.35,3.541983962058616
523,2941153704,-3.378191471099853,-88.14301300048828,-161.9251251220703,9.828266143798828,-0.0842311903834343,0.3151922523975372,1.1915358304977417,-2.2499287128448486,0.6780471801757812, ,4.358333333333333,0.6231772899620474
524,2941162037,-3.4221785068511963,-88.14459991455078,-161.87657165527344,9.8221435546875,-0.1279539316892624,0.2637481093406677,1.113950252532959,-2.3864784240722656,0.6366546154022217, ,4.366666666666666,-2.6458060741428433
525,2941170370,-3.428265333175659,-88.14491271972656,-161.86573791503906,9.775574684143066,-0.0910398736596107,0.2710954844951629,1.1376947164535522,-2.254411220550537,0.5671888589859009, ,4.375,-0.31949758529676053
526,2941178703,-3.4764516353607178,-88.14544677734375,-161.81298828125,9.793940544128418,-0.0830021202564239,0.2584231495857239,1.1108509302139282,-2.237173080444336,0.6606808304786682, ,4.383333333333333,0.5206274986264958
527,2941187036,-3.4989075660705566,-88.14628601074219,-161.7854766845703,9.807832717895508,-0.0963290110230445,0.2797726094722748,1.1786775588989258,-2.360710382461548,0.6255636811256409, ,4.391666666666667,-0.641587972640961
528,2941195369,-3.5206422805786133,-88.1473388671875,-161.75946044921875,9.822052001953123,-0.0919344723224639,0.247730016708374,1.073249340057373,-2.2961111068725586,0.551410436630249, ,4.4,-1.6763073205945638
529,2941203702,-3.499519109725952,-88.1473388671875,-161.77664184570312,9.79905605316162,-0.1127715557813644,0.2518341541290283,1.0470201969146729,-2.2256975173950195,0.4617093801498413, ,4.408333333333333,2.909495830535638
530,2941212035,-3.4627397060394287,-88.14649200439453,-161.80923461914062,9.805932998657228,-0.0761840939521789,0.2962216138839721,1.0678447484970093,-2.111714601516724,0.3360972106456756, ,4.416666666666667,1.5367645025249281
531,2941220368,-3.42370080947876,-88.14554595947266,-161.8441162109375,9.84743595123291,-0.0863532647490501,0.2774468958377838,1.0645405054092407,-2.065762519836426,0.3998254239559173, ,4.425,-1.512186527252279
532,2941228701,-3.4255528450012207,-88.14575958251953,-161.83763122558594,9.808028221130373,-0.106601633131504,0.2710185050964355,1.1286529302597046,-2.252182722091675,0.4805358946323395, ,4.433333333333334,-0.7059806585311907
533,2941237034,-3.43239974975586,-88.14491271972656,-161.8257293701172,9.817317962646484,-0.0900199338793754,0.2656805515289306,1.177678465843201,-2.126032590866089,0.5776906609535217, ,4.441666666666666,-0.0247192382813175
534,2941245367,-3.44806170463562,-88.1443862915039,-161.80545043945312,9.797707557678224,-0.0668932273983955,0.270606517791748,1.11528217792511,-2.1345622539520264,0.5406524538993835, ,4.45,0.07130384445185456
535,2941253700,-3.4610769748687744,-88.1434326171875,-161.78834533691406,9.8395357131958,-0.0981536954641342,0.2668689489364624,1.0574196577072144,-2.1110997200012207,0.6007434725761414, ,4.458333333333333,-1.1679232120513188
536,2941262033,-3.4987800121307373,-88.14354705810547,-161.74688720703125,9.780085563659668,-0.0971302092075347,0.2511411309242248,1.0134400129318235,-2.2219064235687256,0.6176487803459167, ,4.466666666666667,0.6336307525637466
537,2941270366,-3.5083508491516118,-88.14311981201172,-161.73292541503906,9.820103645324709,-0.0837334990501403,0.277429461479187,1.1111327409744265,-2.2008776664733887,0.5833514332771301, ,4.475,1.650733351707629
538,2941278699,-3.5426788330078125,-88.14407348632812,-161.69422912597656,9.789480209350586,-0.0873842984437942,0.2786533534526825,1.0863893032073977,-2.277182579040528,0.6027414202690125, ,4.483333333333333,-0.37223696708684884
539,2941287032,-3.5547537803649902,-88.1443862915039,-161.67823791503906,9.82548713684082,-0.1012792810797691,0.2712255120277405,1.0480705499649048,-2.2785398960113525,0.5863738059997559, ,4.491666666666666,-2.3939761519430593
